ACCELEROMETER X (m/s²),ACCELEROMETER Y (m/s²),ACCELEROMETER Z (m/s²),GRAVITY X (m/s²),GRAVITY Y (m/s²),GRAVITY Z (m/s²),LINEAR ACCELERATION X (m/s²),LINEAR ACCELERATION Y (m/s²),LINEAR ACCELERATION Z (m/s²),GYROSCOPE X (rad/s),GYROSCOPE Y (rad/s),GYROSCOPE Z (rad/s),LIGHT (lux),MAGNETIC FIELD X (μT),MAGNETIC FIELD Y (μT),MAGNETIC FIELD Z (μT),ORIENTATION Z (azimuth °),ORIENTATION X (pitch °),ORIENTATION Y (roll °),PROXIMITY (i),SOUND LEVEL (dB),LOCATION Latitude : ,LOCATION Longitude : ,LOCATION Altitude ( m),LOCATION Altitude-google ( m),LOCATION Speed ( Kmh),LOCATION Accuracy ( m),LOCATION ORIENTATION (°),Satellites in range,Time since start in ms ,YYYY-MO-DD HH-MI-SS_SSS,,,ECG_DATA_STORE
0.4913,3.5764,8.1782,0.5753,3.9153,8.9727,-0.5912,-0.2709,-1.0162,0.1439,0.0625,0.0036,13.986,19.01,-6.38,10.01,241.44,-23.53,-3.67,2,69.071,13.043694,77.600525,2591.35,NaN,54.79,15.289753,270.8,0 / 20,54,2021-03-13 18:17:58:576,,,-0.06
0.8019,4.0108,9.5538,0.5073,3.8753,8.9942,-0.4993,0.0076,-1.0941,-0.0513,0.0035,-0.044,11.1888,21.62,-6.27,7.73,246.94,-23.28,-3.23,2,69.371,13.042003,77.59693,2651.67,NaN,46.26,21.97301,244.7,0 / 22,551,2021-03-13 18:17:59:073,,,-0.065
0.3107,3.2433,8.4084,0.2841,3.7498,9.057,0.5215,0.0157,1.5689,-0.041,-0.0083,-0.0872,13.986,22.36,-5.36,7.09,250.3,-22.72,-2.89,2,66.835,13.042003,77.59693,2651.67,NaN,46.26,21.97301,244.7,0 / 22,1051,2021-03-13 18:17:59:573,,,-0.06
0.8829,2.9933,10.6719,0.274,3.6133,9.1126,-0.1038,-0.1675,-1.3332,0.3205,0.2997,-0.014,13.986,22.49,-4.36,7.14,253.6,-22.19,-0.7,2,68.363,13.041929,77.5968,2664.87,NaN,46.55,17.848845,248.1,16 / 24,1551,2021-03-13 18:18:00:073,,,-0.075
-0.3281,3.5556,8.4501,0.1732,3.8046,9.0369,-0.3929,-0.5093,-1.0164,-0.0938,-0.2409,0.0467,13.986,24.17,-3.04,7.8,255.77,-22.83,-1.1,2,67.142,13.041929,77.5968,2664.87,NaN,46.55,17.848845,248.1,16 / 24,2051,2021-03-13 18:18:00:573,,,-0.065
-0.4208,2.929,10.3548,-0.0691,3.7072,9.0787,-0.0013,0.1836,2.1357,0.0634,-0.0541,0.0517,16.7832,24.44,-2.74,8.48,256.6,-22.21,0.44,2,68.627,13.041917,77.59669,2646.18,NaN,44.1,17.164137,255.1,19 / 25,2551,2021-03-13 18:18:01:073,,,-0.07
-1.0799,0.8143,10.1192,-0.2344,2.1156,9.5729,0.8713,0.7788,-1.522,-2.0581,1.0994,0.865,11.1888,24.63,-1.22,6.01,261.8,-22.12,-2.32,2,67.89,13.041917,77.59669,2646.18,NaN,44.1,17.164137,255.1,19 / 25,3051,2021-03-13 18:18:01:573,,,-0.07
-1.6866,-0.5712,10.2252,-0.476,1.3618,9.7,-0.2414,-1.4266,2.3795,1.7653,-0.0963,-0.0954,5.5944,23.79,-2.64,5.02,262.57,-2.23,2.34,2,71.213,13.041879,77.59657,2639.35,NaN,45.79,16.373991,255,19 / 27,3552,2021-03-13 18:18:02:074,,,-0.09
1.3354,5.9904,6.1754,-1.0682,7.2004,6.5714,2.9566,-0.5932,0.2237,1.369,0.7279,-0.733,11.1888,28.16,8.5,4.11,277.2,-36.61,-1.78,2,68.328,13.041879,77.59657,2639.35,NaN,45.79,16.373991,255,19 / 27,4051,2021-03-13 18:18:02:573,,,-0.08
2.0831,7.2268,3.1794,1.5635,9.1656,3.1172,-1.7333,-2.7508,1.556,1.4763,-0.0801,1.1553,8.3916,23.4,12.54,-11.02,279.3,-69.17,-26.64,2,68.035,13.041872,77.596466,2627.95,NaN,45.58,14.265685,262.3,19 / 28,4551,2021-03-13 18:18:03:073,,,-0.095
1.6118,8.681,-1.3359,0.9262,9.4211,2.5605,2.7967,-0.0957,-1.2702,-0.4085,-0.1904,-0.287,11.1888,28.44,11.62,-5.55,259.74,-71.28,-30.93,2,65.978,13.041872,77.596466,2627.95,NaN,45.58,14.265685,262.3,19 / 28,5051,2021-03-13 18:18:03:573,,,-0.08
-0.4831,7.2288,5.4534,0.2583,9.1597,3.4933,-2.5473,-1.7255,1.8078,0.0229,-0.0432,0.5145,11.1888,24.35,15.85,-10.34,304.38,-70.45,3.18,2,68.86,13.041871,77.59637,2614.46,NaN,46.12,14.036849,263.4,20 / 29,5551,2021-03-13 18:18:04:073,,,-0.095
-0.205,8.3092,3.5193,1.6928,9.0765,3.3049,-1.4916,-0.4306,0.5382,-0.2779,0.3819,-0.3879,11.1888,26.92,12.21,-12.46,271.31,-67.35,-32.3,2,68.249,13.041871,77.59637,2614.46,NaN,46.12,14.036849,263.4,20 / 29,6050,2021-03-13 18:18:04:572,,,-0.08
1.3399,9.8654,0.5212,1.5826,9.0262,3.492,-1.3274,-1.8175,1.625,0.9294,0.05,-0.0372,8.3916,27.66,11.04,-12.99,278.4,-66.99,-24.38,2,66.233,13.041879,77.59625,2598.05,NaN,45.36,13.768473,272.8,21 / 29,6551,2021-03-13 18:18:05:073,,,-0.095
1.7564,9.1239,1.7381,2.0015,9.1101,3.0282,-0.95,-0.8037,-0.3386,-0.0691,-0.0958,-0.0151,8.3916,27.8,11.17,-13.66,275.67,-66.68,-29.05,2,67.539,13.041879,77.59625,2598.05,NaN,45.36,13.768473,272.8,21 / 29,7051,2021-03-13 18:18:05:573,,,-0.085
1.5153,9.3192,3.6407,1.8406,8.9709,3.5079,-0.3763,0.7507,-0.1589,-0.1476,-0.0323,-0.0366,11.1888,27.43,11.45,-14.64,277.22,-67.01,-29.82,2,66.217,13.041877,77.59616,2595.93,NaN,41,12.90037,271.1,21 / 30,7551,2021-03-13 18:18:06:073,,,-0.09
1.1476,9.4129,2.8401,1.7135,8.8385,3.8878,-0.8519,0.4778,-1.3602,-0.4538,-0.0389,-0.01,11.1888,27.91,11.54,-13.34,280.5,-64.75,-23.66,2,68.553,13.041877,77.59616,2595.93,NaN,41,12.90037,271.1,21 / 30,8051,2021-03-13 18:18:06:573,,,-0.09
0.7153,7.9135,4.4807,1.4738,8.7933,4.0836,-0.7131,1.1767,-1.8259,0.3466,0.1406,0.0169,11.1888,27.46,12.03,-13.84,284.9,-64.63,-21.34,2,65.113,13.04188,77.596054,2597.79,NaN,43.99,12.488211,270.8,22 / 30,8551,2021-03-13 18:18:07:073,,,-0.1
0.9725,8.3527,4.1726,1.495,8.8089,4.0421,-0.5364,-0.2169,1.1219,0.0896,0.0071,0.0172,8.3916,28.1,11.53,-13.37,284.36,-63.2,-19.78,2,68.278,13.04188,77.596054,2597.79,NaN,43.99,12.488211,270.8,22 / 30,9051,2021-03-13 18:18:07:573,,,-0.085
1.0584,9.5436,3.1373,1.4938,8.7876,4.0885,-0.1384,0.3292,-0.7954,-0.2944,0.0041,-0.1009,11.1888,28.2,10.86,-13.44,283.2,-63.65,-20.07,2,67.779,13.041893,77.595955,2594.74,NaN,41.47,12.226105,272.3,22 / 30,9551,2021-03-13 18:18:08:073,,,-0.105
0.9359,9.074,3.7047,1.5,8.7723,4.1192,0.1799,0.7978,-0.7524,-0.1945,-0.0972,-0.0448,8.3916,27.26,11.95,-13.75,286.38,-63.45,-20.01,2,69.267,13.041893,77.595955,2594.74,NaN,41.47,12.226105,272.3,22 / 30,10051,2021-03-13 18:18:08:573,,,-0.09
0.4499,8.4556,1.3465,1.6338,9.3734,2.3748,-0.8567,0.269,-1.2661,-0.8024,-2.5241,-0.4693,13.986,14.07,14.29,-26.6,303.54,-72.91,-34.53,2,70.64,13.041891,77.59584,2597.59,NaN,42.95,12.226105,271.5,22 / 30,10551,2021-03-13 18:18:09:073,,,-0.045
0.9654,9.2262,0.5137,1.7201,9.6326,0.6515,-0.4382,-0.1639,0.5316,0.6672,-0.0842,-0.0268,27.972,-1.91,13.54,-30.56,310.04,-78.31,-57.12,2,71.141,13.041891,77.59584,2597.59,NaN,42.95,12.226105,271.5,22 / 30,11051,2021-03-13 18:18:09:573,,,0.005
2.2818,8.0534,2.6349,2.285,9.2348,2.3806,-1.3889,-1.9018,0.8658,-0.4379,5.9858,1.7015,13.986,16.86,11.7,-26.06,289.33,-70.34,-43.83,2,66.883,13.041904,77.595726,2591.04,NaN,42.34,12.226105,271.3,22 / 30,11551,2021-03-13 18:18:10:073,,,0.015
2.0116,9.756,2.2169,1.7245,9.149,3.0809,-0.2385,0.4692,-0.5385,0.0107,-0.2429,-0.0711,19.5804,30.32,8.38,-11.96,268.17,-68.9,-29.24,2,70.419,13.041904,77.595726,2591.04,NaN,42.34,12.226105,271.3,22 / 30,12052,2021-03-13 18:18:10:574,,,0.045
2.6621,9.1174,-0.408,1.6985,9.6559,0.2197,0.4632,0.194,-1.4784,-1.2057,-1.5726,-0.179,22.3776,6.47,9.59,-31.07,269.64,-79.94,-82.63,2,68.994,13.041903,77.59563,2591.57,NaN,40.79,12.226105,270.5,21 / 30,12551,2021-03-13 18:18:11:073,,,0.155
2.2674,8.7453,2.0935,1.9969,9.4612,1.6333,0.8815,0.1721,0.6814,0.0543,-0.0711,0.0097,16.7832,-1.53,14.98,-29.82,317.07,-74.49,-50.99,2,69.23,13.041903,77.59563,2591.57,NaN,40.79,12.226105,270.5,21 / 30,13050,2021-03-13 18:18:11:572,,,0.14
2.7989,9.165,3.3784,2.0135,9.4897,1.4356,-0.3713,0.2565,0.5257,-0.1329,-0.0565,0.1327,16.7832,-2.18,14.19,-30.45,313.34,-75.39,-54.51,2,69.232,13.041902,77.59552,2589.77,NaN,43.31,12.226105,271.6,21 / 31,13551,2021-03-13 18:18:12:073,,,0.045
2.0776,8.5199,2.3698,1.9787,9.4909,1.4761,0.4995,-0.832,1.3776,0.2281,-0.1294,-0.1027,19.5804,-2.31,13.61,-31.18,314.22,-75.42,-53.28,2,66.735,13.041902,77.59552,2589.77,NaN,43.31,12.226105,271.6,21 / 31,14051,2021-03-13 18:18:12:573,,,0.005
1.9705,8.154,1.5849,2.2067,9.4765,1.2235,0.7317,-1.042,0.8961,0.1131,-0.0396,0.0282,16.7832,-2.87,13.15,-30.21,308.82,-75.09,-60.99,2,68.103,13.041904,77.595406,2587.44,NaN,42.59,12.226105,271.5,22 / 31,14551,2021-03-13 18:18:13:073,,,-0.04
0.9342,9.1557,1.1208,2.272,9.4568,1.2558,-0.7299,-0.3724,0.1926,-0.204,0.0528,0.3017,16.7832,-3.92,13.22,-30.54,310.97,-74.35,-60.28,2,68.662,13.041904,77.595406,2587.44,NaN,42.59,12.226105,271.5,22 / 31,15051,2021-03-13 18:18:13:573,,,-0.085
0.0573,8.0538,5.3806,0.2558,8.333,5.164,0.3052,0.2274,-0.5157,-0.6269,2.0005,0.1578,11.1888,22.34,15.41,-18.6,305.88,-61.33,-13.89,2,66.328,13.041908,77.5953,2587.53,NaN,43.13,12.226105,271.4,22 / 31,15551,2021-03-13 18:18:14:073,,,-0.2
-0.0757,8.2224,4.6671,-0.2098,8.7497,4.4237,-0.5736,0.6286,-2.1052,-0.5202,0.3028,-0.0057,11.1888,28.63,14.21,-9.45,298.61,-63.15,2.72,2,67.202,13.041908,77.5953,2587.53,NaN,43.13,12.226105,271.4,22 / 31,16052,2021-03-13 18:18:14:574,,,-0.195
0.1722,8.3646,3.5087,1.1107,8.9499,3.8518,-1.4625,-1.3486,-0.7298,0.3344,-0.1384,0.7986,11.1888,30.59,7.56,-11.17,278.79,-65.87,-16.09,2,66.887,13.0419,77.595184,2577.12,NaN,43.7,12.226105,266.7,22 / 32,16550,2021-03-13 18:18:15:072,,,-0.2
2.1265,7.5869,3.5528,2.4885,8.2668,4.6517,0.0681,-1.0724,0.1527,0.1177,0.0878,-0.0904,8.3916,32.27,5.28,-10.04,264.78,-56.6,-29.21,2,66.58,13.0419,77.595184,2577.12,NaN,43.7,12.226105,266.7,22 / 32,17051,2021-03-13 18:18:15:573,,,-0.2
2.4175,7.3222,4.0529,2.5358,8.2612,4.636,0.178,-0.3057,0.0825,0.3147,0.0269,-0.0444,8.3916,31.02,5.64,-10.4,267.69,-56.21,-27.74,2,67.696,13.041894,77.59506,2578.22,NaN,42.73,12.226105,267.6,23 / 32,17551,2021-03-13 18:18:16:073,,,-0.24
2.4743,7.3383,3.926,2.5685,8.2121,4.7047,0.174,-0.8243,-0.3754,0.0639,0.0209,-0.0421,5.5944,31.68,6.02,-9.94,267.36,-55.5,-27.61,2,67.488,13.041894,77.59506,2578.22,NaN,42.73,12.226105,267.6,23 / 32,18051,2021-03-13 18:18:16:573,,,-0.13
2.818,8.3691,4.7663,2.6889,8.2507,4.5679,0.1666,0.8269,-0.107,-0.1246,0.0215,0.0296,5.5944,30.94,6.03,-11.32,266.43,-57.28,-30.48,2,68.829,13.041898,77.59496,2574.01,NaN,39.56,12.226105,269.5,23 / 32,18551,2021-03-13 18:18:17:073,,,0.34
2.7216,8.3068,5.307,2.8542,8.1657,4.6202,-0.4641,0.5856,-0.4347,0.0723,-0.1249,0.071,8.3916,31.24,5.79,-12.02,267.74,-56.89,-30.61,2,67.356,13.041898,77.59496,2574.01,NaN,39.56,12.226105,269.5,23 / 32,19051,2021-03-13 18:18:17:573,,,1.155
3.0472,7.8297,5.9039,2.9409,7.99,4.8663,0.0544,0.8853,0.0334,-0.1949,-0.0125,-0.0998,8.3916,31.75,5.95,-13.41,266.18,-56.42,-33.29,2,70.693,13.041898,77.59486,2567.67,NaN,37.66,12.226105,270,23 / 32,19551,2021-03-13 18:18:18:073,,,1.47
2.4158,7.9156,5.5184,2.9734,7.9315,4.9418,-0.0277,-0.1084,0.9545,0.2263,-0.1933,0.0608,11.1888,31.23,8.73,-13.97,274.69,-53.14,-29.83,2,68.814,13.041898,77.59486,2567.67,NaN,37.66,12.226105,270,23 / 32,20051,2021-03-13 18:18:18:573,,,-0.155
3.291,7.3099,5.2598,3.1198,7.9461,4.8266,0.1643,-0.2255,1.1991,-0.1875,-0.07,0.0249,5.5944,30.66,7.54,-15.73,273.01,-53.86,-33.2,2,67.31,13.041899,77.59476,2568.43,NaN,36.32,12.226105,269.4,23 / 32,20552,2021-03-13 18:18:19:074,,,-0.825
3.9022,8.9707,5.8621,3.2138,7.7734,5.0414,0.4681,1.4262,-0.6604,-0.4711,0.1644,-0.0176,1.8648,30.6,6.29,-16.1,271.39,-54.69,-32.59,2,68.333,13.041899,77.59476,2568.43,NaN,36.32,12.226105,269.4,23 / 32,21050,2021-03-13 18:18:19:572,,,-0.59
3.4658,8.9844,4.9568,2.8761,7.9438,4.9794,-0.0121,0.9777,-0.563,-0.2947,0.0165,0.028,8.3916,32.71,6.39,-15.76,272.24,-55.3,-29.63,2,68.52,13.041895,77.59468,2568.01,NaN,35.03,12.226105,268.7,23 / 32,21551,2021-03-13 18:18:20:073,,,-0.35
2.2558,7.2668,6.6341,2.5996,7.5298,5.7196,-0.2357,-0.1233,0.6595,-0.2789,-0.084,-0.0534,11.1888,32.3,6.25,-13.19,274.58,-50.16,-24.44,2,69.673,13.041895,77.59468,2568.01,NaN,35.03,12.226105,268.7,23 / 32,22051,2021-03-13 18:18:20:573,,,-0.155
3.2876,8.0544,5.268,3.0819,7.485,5.536,-1.1205,-0.1358,0.2292,0.0599,0.1372,-0.0529,16.7832,31.86,7.03,-12.74,276.17,-47.73,-24.3,2,65.928,13.041904,77.5946,2568.6,NaN,33.62,12.226105,274.3,24 / 32,22551,2021-03-13 18:18:21:073,,,-0.17
2.4613,6.8984,4.9233,3.2743,7.518,5.3785,0.154,-0.3736,0.65,0.0795,0.6914,-0.0224,13.986,30.05,6.96,-15.14,274.04,-50.05,-31.33,2,65.129,13.041904,77.5946,2568.6,NaN,33.62,12.226105,274.3,24 / 32,23051,2021-03-13 18:18:21:573,,,-0.14
2.2965,8.1854,4.3952,2.5007,7.8054,5.3845,0.1232,0.3038,-0.0746,-0.0035,-0.0212,-0.0348,16.7832,33.02,6.39,-10.34,269.64,-52.74,-24.91,2,63.731,13.041906,77.59452,2565.14,NaN,30.56,12.226105,263.8,22 / 32,23552,2021-03-13 18:18:22:074,,,-0.155
2.8198,8.1553,5.3142,2.5742,7.7062,5.4917,0.3163,0.4232,-0.3872,-0.1146,-0.02,-0.013,13.986,31.27,3.77,-10.76,269.93,-51.8,-25.12,2,66.982,13.041906,77.59452,2565.14,NaN,30.56,12.226105,263.8,22 / 32,24051,2021-03-13 18:18:22:573,,,-0.115
3.1077,8.1974,8.326,2.5046,7.3036,6.0461,0.6936,1.9217,1.3675,-0.475,-0.0183,-0.0725,13.986,32,7.58,-13.42,278.5,-48.14,-22.5,2,70.127,13.041905,77.59444,2569.85,NaN,29.63,12.226105,266.7,23 / 32,24550,2021-03-13 18:18:23:072,,,-0.125
1.2544,7.971,4.0768,2.5968,7.6537,5.5541,-0.4937,-1.4107,-0.3357,-0.0229,0.1769,-0.0202,13.986,32.08,8.86,-14.75,280.38,-50.92,-23.44,2,68.878,13.041905,77.59444,2569.85,NaN,29.63,12.226105,266.7,23 / 32,25050,2021-03-13 18:18:23:572,,,-0.09
2.5119,7.1867,6.3526,2.7281,7.7285,5.385,-0.0036,-0.6443,-1.8725,-0.279,-0.1316,0.196,11.1888,33.04,7.8,-12.33,272.64,-52.01,-26.87,2,69.313,13.041907,77.594376,2570.5,NaN,28.33,12.226105,273.1,22 / 32,25551,2021-03-13 18:18:24:073,,,-0.095
3.0657,8.9112,5.2181,3.1262,7.7602,5.1163,-0.4723,0.483,-0.5904,-0.0149,-0.2662,0.0193,13.986,31.7,7.78,-16.07,274,-52.31,-31.43,2,65.764,13.041907,77.594376,2570.5,NaN,28.33,12.226105,273.1,22 / 32,26052,2021-03-13 18:18:24:574,,,-0.065
3.5794,7.4816,4.3966,3.385,7.7071,5.0312,-0.0866,-0.0945,-0.2913,-0.0657,0.0276,-9.00E-04,16.7832,31.67,7.18,-16.54,272.18,-51.8,-33.93,2,67.985,13.041911,77.59431,2572.96,NaN,27.54,12.226105,273.1,21 / 32,26551,2021-03-13 18:18:25:073,,,-0.055
3.6717,7.762,4.6039,3.2497,7.6568,5.1945,0.3856,0.0985,-0.42,0.012,0.0208,-0.0488,11.1888,31.5,7.39,-15.57,273.57,-50.99,-32.04,2,66.187,13.041911,77.59431,2572.96,NaN,27.54,12.226105,273.1,21 / 32,27052,2021-03-13 18:18:25:574,,,-0.015
2.2366,7.6669,3.8689,2.9799,7.8658,5.0417,-0.5447,-0.0998,-1.2079,0.2541,-0.0033,-0.0802,11.1888,31.7,8.54,-15.03,274.55,-52.74,-30.51,2,65.682,13.041915,77.59424,2573.43,NaN,27.07,12.226105,274,21 / 32,27551,2021-03-13 18:18:26:073,,,-0.005
3.1248,7.4857,4.687,3.063,7.7789,5.1261,0.1319,-0.1377,-0.353,0.0511,-0.0301,-0.0355,11.1888,32.48,9.36,-15.99,275.37,-52.49,-30.86,2,66.213,13.041915,77.59424,2573.43,NaN,27.07,12.226105,274,21 / 32,28051,2021-03-13 18:18:26:573,,,0.035
2.8177,7.8355,4.6979,3.0498,7.7948,5.1099,-0.1955,0.1127,0.0649,-0.0342,0.0497,0.034,11.1888,32.22,8.57,-15.95,275.36,-52.64,-30.83,2,62.548,13.041922,77.59416,2575.28,NaN,28.04,12.226105,276.2,20 / 32,28550,2021-03-13 18:18:27:072,,,0.045
0.3856,7.986,0.604,0.701,9.7804,0.153,-0.3337,-1.8927,2.2222,-0.525,1.1157,0.2755,16.7832,-11.06,11.48,-33.16,285.83,-85.08,-94.04,2,65.021,13.041922,77.59416,2575.28,NaN,28.04,12.226105,276.2,20 / 32,29050,2021-03-13 18:18:27:572,,,0.09
1.9599,9.8449,0.0099,1.5502,9.6738,0.4305,0.186,0.0856,-0.4684,-0.1517,0.1733,0.044,11.1888,-2,11.83,-35.02,294.31,-80.7,-71.59,2,64.949,13.041925,77.59408,2576.33,NaN,30.17,12.46824,276.6,19 / 32,29551,2021-03-13 18:18:28:073,,,0.11
2.1326,8.6287,3.178,1.5244,8.3082,4.9821,0.5128,0.3436,-1.3126,0.2008,0.5658,0.1059,8.3916,30.37,13.48,-14.57,289.03,-57.83,-17.44,2,64.513,13.041925,77.59408,2576.33,NaN,30.17,12.46824,276.6,19 / 32,30052,2021-03-13 18:18:28:574,,,0.15
0.4985,6.8242,8.1697,0.2864,6.7812,7.0784,0.6567,0.1837,2.3617,-0.8689,2.3443,0.9225,4.662,27.97,22.01,-9.81,307.81,-43.75,-2.32,2,62.706,13.041937,77.593994,2578.72,NaN,32.94,12.226105,278.9,19 / 32,30551,2021-03-13 18:18:29:073,,,0.18
0.1555,7.2469,6.8988,1.6601,7.7138,5.8234,-1.4714,-1.0654,2.3983,0.2492,-0.3418,-0.068,11.1888,27.04,19.39,-17.76,311.11,-45.94,-4.27,2,63.309,13.041937,77.593994,2578.72,NaN,32.94,12.226105,278.9,19 / 32,31050,2021-03-13 18:18:29:572,,,0.205
2.1819,7.2972,6.4815,2.1267,7.5291,5.9127,-0.2427,0.6707,-1.6549,0.0425,-0.0854,0.1148,11.1888,26.07,19.2,-18.35,306.95,-47.03,-11.88,2,62.216,13.041943,77.5939,2583.16,NaN,31.14,12.226105,283.7,21 / 32,31551,2021-03-13 18:18:30:073,,,0.225
2.5444,7.4306,5.6778,1.5655,7.4922,6.1308,0.8172,0.0656,-0.9413,-0.1104,0.1453,0.0573,11.1888,27.28,18.22,-18.23,301.55,-51.55,-15.88,2,67.027,13.041943,77.5939,2583.16,NaN,31.14,12.226105,283.7,21 / 32,32051,2021-03-13 18:18:30:573,,,0.23
0.4855,7.3287,5.5625,1.097,7.8898,5.72,0.2638,-0.0899,-0.4922,-0.1623,0.0295,-0.0999,11.1888,26.14,18.25,-17.88,305.94,-53.57,-10.86,2,67.669,13.041966,77.59383,2588.92,NaN,34.74,12.226105,286,21 / 32,32552,2021-03-13 18:18:31:074,,,0.22
1.4616,7.131,5.5885,1.2585,7.8628,5.7239,-0.1301,-0.3482,-0.702,0.0147,-0.014,-0.0044,11.1888,25.74,17.76,-20.47,307.19,-54.06,-11.3,2,67.045,13.041966,77.59383,2588.92,NaN,34.74,12.226105,286,21 / 32,33051,2021-03-13 18:18:31:573,,,0.235
1.1415,7.4022,4.5269,1.3369,7.933,5.6081,0.3649,-0.3659,-0.2029,-0.1247,-0.0402,-0.0134,6.5268,24.75,20.29,-21.15,308.32,-54.11,-14.24,2,68.284,13.04199,77.59373,2590.53,NaN,36.65,12.226105,288.4,21 / 32,33551,2021-03-13 18:18:32:073,,,0.23
1.3655,7.3673,3.0412,1.2231,8.1001,5.391,0.1819,-0.9045,-1.2106,-0.2809,-0.0946,-0.1186,11.1888,26.31,20.19,-21.51,308.3,-54.42,-13.62,2,64.35,13.04199,77.59373,2590.53,NaN,36.65,12.226105,288.4,21 / 32,34051,2021-03-13 18:18:32:573,,,0.2
1.2868,6.1416,3.8107,1.2528,8.2066,5.2204,-0.0494,-1.343,-0.5009,0.0958,-0.0375,0.0402,11.1888,25.78,21.77,-23.19,310.67,-55.05,-12.95,2,66.992,13.042017,77.59365,2594.07,NaN,36.07,12.226105,290.6,21 / 32,34559,2021-03-13 18:18:33:081,,,0.17
-0.2074,7.4374,2.3476,-1.9031,9.0378,3.2966,0.1307,-1.0037,0.8651,0.1739,-0.5517,0.3382,11.1888,28.04,19.99,-14.04,323.53,-58.69,19.19,0,65.894,13.042017,77.59365,2594.07,NaN,36.07,12.226105,290.6,21 / 32,35052,2021-03-13 18:18:33:574,,,0.12
0.7342,7.2818,4.8723,1.3144,7.5863,6.0738,-0.7797,-0.6221,0.1537,0.6723,-0.017,0.2725,13.986,24.85,25.09,-20.49,313.15,-50.68,-12.21,2,67.01,13.042051,77.59356,2598.06,NaN,35.5,12.226105,295.8,21 / 32,35551,2021-03-13 18:18:34:073,,,0.075
1.9333,7.1201,4.6948,1.7747,7.7134,5.79,0.1276,-0.5324,-1.3196,-0.2726,0.3497,-0.1774,11.1888,23.75,20.08,-21.92,308.48,-51.86,-17.04,2,64.232,13.042051,77.59356,2598.06,NaN,35.5,12.226105,295.8,21 / 32,36051,2021-03-13 18:18:34:573,,,0.04
1.0741,8.1824,4.8303,1.4042,7.7742,5.8103,0.0588,0.3793,-1.3509,-0.5165,-0.0286,-0.0549,13.986,25.15,21.05,-18.98,308.38,-52.44,-13.59,2,62.743,13.042075,77.593475,2598.78,NaN,38.2,12.226105,288.5,21 / 32,36551,2021-03-13 18:18:35:073,,,0.02
1.2229,8.5439,6.9241,1.2066,7.7183,5.928,-0.0821,0.9225,0.6233,-0.3357,-0.0407,-0.0218,13.986,24.89,21.91,-21.55,311.97,-53.72,-12.1,2,62.475,13.042075,77.593475,2598.78,NaN,38.2,12.226105,288.5,21 / 32,37051,2021-03-13 18:18:35:573,,,0.005
1.1271,7.3273,3.7574,1.1199,7.8769,5.7333,0.0856,-1.1743,-1.487,-0.477,-0.1587,-0.1249,13.986,23.99,21.87,-19.99,312.59,-53.44,-11.05,2,65.205,13.042105,77.59339,2600.47,NaN,35.82,12.226105,289.3,19 / 32,37552,2021-03-13 18:18:36:074,,,-0.005
0.7492,7.2911,6.0896,1.0457,7.724,5.9512,-0.2852,0.0055,0.0248,-0.0408,0.0092,-0.0034,11.1888,22.68,21.68,-19.73,314.8,-51.96,-9.97,2,65.533,13.042105,77.59339,2600.47,NaN,35.82,12.226105,289.3,19 / 32,38051,2021-03-13 18:18:36:573,,,-0.005
0.4489,7.6977,6.4278,1.0683,7.7266,5.9439,-0.1138,-0.0461,0.8716,0.0138,-0.1883,0.0075,13.986,21.27,23.08,-21.13,318.46,-51.99,-10.19,2,66.349,13.042138,77.593285,2601.58,NaN,39.46,12.226105,287.2,19 / 32,38551,2021-03-13 18:18:37:073,,,-0.01
0.8337,7.3738,5.7684,1.0364,7.7498,5.9192,0.3547,-0.1904,-0.26,-0.0176,0.0838,-0.0596,13.986,21.64,22.73,-21.13,316.58,-52.91,-10.87,2,65.378,13.042138,77.593285,2601.58,NaN,39.46,12.226105,287.2,19 / 32,39051,2021-03-13 18:18:37:573,,,-0.015
0.6439,7.3403,5.527,0.9694,7.72,5.9693,-0.0826,0.2894,0.6538,-0.041,0.0135,-0.0149,11.1888,24.1,21.68,-18.57,313.42,-51.93,-9.22,2,65.007,13.042165,77.59319,2603.43,NaN,38.48,12.226105,287.6,18 / 32,39551,2021-03-13 18:18:38:073,,,-0.01
0.5577,7.4186,6.4935,0.91,7.7393,5.9537,-0.0415,0.0451,-0.6753,0.0454,-0.0119,-0.025,13.986,21.52,21.66,-21.15,317.58,-52.11,-8.69,2,63.467,13.042165,77.59319,2603.43,NaN,38.48,12.226105,287.6,18 / 32,40051,2021-03-13 18:18:38:573,,,0
1.0331,7.432,5.4172,0.9459,7.6778,6.0271,-0.039,-0.2254,-0.9429,-0.1854,-0.0101,-0.0405,11.1888,20.57,20.85,-18.63,316.78,-51.53,-8.92,2,64.045,13.042202,77.5931,2603.62,NaN,39.42,12.226105,288.9,19 / 30,40551,2021-03-13 18:18:39:073,,,-0.005
0.9366,7.2056,5.1309,0.9233,7.6328,6.0875,-0.1922,-0.2274,0.3154,-0.0759,-0.0116,-0.012,13.986,21.31,25.6,-17.61,319.92,-50.56,-8.54,2,65.092,13.042202,77.5931,2603.62,NaN,39.42,12.226105,288.9,19 / 30,41051,2021-03-13 18:18:39:573,,,-0.02
0.5789,6.962,6.4685,0.8794,7.5309,6.2195,-0.3095,0.0074,-0.1182,0.083,0.0187,0.0283,8.3916,21.04,22.61,-20.98,319.94,-49.72,-8.44,2,64.051,13.042239,77.59301,2604.23,NaN,38.3,12.226105,289.7,19 / 30,41551,2021-03-13 18:18:40:073,,,-0.02
0.8186,7.4504,5.37,0.973,7.4831,6.2631,-0.1767,0.008,-0.1559,-0.0448,0.0034,0.0029,11.1888,21.17,21.11,-16.04,314.96,-49.74,-8.83,2,65.945,13.042239,77.59301,2604.23,NaN,38.3,12.226105,289.7,19 / 30,42050,2021-03-13 18:18:40:572,,,-0.015
0.5635,7.0818,6.3916,0.9757,7.4284,6.3276,-0.2005,0.0064,0.8109,0.0268,-0.0215,0.0237,11.1888,20.89,26.74,-21.28,322.24,-49.24,-8.77,2,65.032,13.042268,77.59292,2604.69,NaN,37.98,13.683036,288.2,20 / 30,42551,2021-03-13 18:18:41:073,,,-0.025
0.1237,7.2281,6.0389,0.8568,7.4327,6.3397,-0.58,0.1571,0.4549,0.0439,-0.0109,0.0522,8.3916,20.91,21.89,-18.74,318.29,-49.26,-8.16,2,67.362,13.042268,77.59292,2604.69,NaN,37.98,13.683036,288.2,20 / 30,43051,2021-03-13 18:18:41:573,,,-0.035
1.0197,7.0445,5.9593,1.0335,7.3579,6.4002,-0.0599,0.0548,-0.6899,-0.0029,-0.0125,0.0326,11.1888,20.44,26.22,-15.15,319.85,-48.37,-8.63,2,64.628,13.042303,77.59282,2607.88,NaN,40,16.521809,287.5,20 / 30,43551,2021-03-13 18:18:42:073,,,-0.045
0.9821,7.4987,6.1238,1.1155,7.4334,6.2985,0.2477,0.2044,0.1671,0.1045,-0.0076,0.0236,8.3916,21.79,24.06,-21.57,318.69,-49.1,-10.29,2,65.788,13.042303,77.59282,2607.88,NaN,40,16.521809,287.5,20 / 30,44051,2021-03-13 18:18:42:573,,,-0.045
0.7454,7.4176,5.8183,0.9713,7.5147,6.2255,-0.3971,-0.3582,-1.0015,-0.0726,-0.0025,-0.0026,11.1888,21.45,19.82,-17.25,314.84,-50.02,-8.87,2,65.768,13.042333,77.59271,2607.97,NaN,41.44,13.015113,287.2,20 / 30,44551,2021-03-13 18:18:43:073,,,-0.06
0.6038,6.8598,7.3991,1.002,7.4588,6.2875,-0.3573,-0.0417,0.681,-0.1161,0.0619,0.0168,6.5268,21.46,26.23,-18.08,319.62,-50.8,-8.95,2,65.531,13.042333,77.59271,2607.97,NaN,41.44,13.015113,287.2,20 / 30,45051,2021-03-13 18:18:43:573,,,-0.065
1.0683,7.0062,6.9781,1.3136,7.4056,6.293,-0.2136,-0.0158,0.6889,0.1906,-0.0712,0.1057,11.1888,20.58,21.39,-22.01,317.98,-48.71,-10.31,2,64.897,13.042373,77.592606,2613.19,NaN,41.69,12.547618,287.8,20 / 30,45552,2021-03-13 18:18:44:074,,,-0.07
1.2581,5.8495,6.501,1.7377,6.9208,6.7271,-0.2005,-1.3319,2.9956,0.5426,-0.476,0.0647,11.1888,18.26,19.95,-15.83,317.27,-41.8,-12.4,2,66.675,13.042373,77.592606,2613.19,NaN,41.69,12.547618,287.8,20 / 30,46051,2021-03-13 18:18:44:573,,,-0.055
1.9791,6.6905,4.2707,1.8998,7.4172,6.1275,-0.5554,-0.9809,-1.4941,0.5977,0.1722,0.0857,11.1888,18.33,20.3,-19.14,317.08,-47,-14.39,2,67.977,13.042412,77.592514,2610.97,NaN,40.18,12.226105,288.2,21 / 31,46551,2021-03-13 18:18:45:073,,,-0.06
1.5317,7.0089,4.8159,1.9975,7.298,6.2386,-0.0076,-0.2239,-0.2516,0.016,-0.3058,0.1718,13.986,21.47,19.91,-20.68,313.17,-46.79,-15.68,2,70.852,13.042412,77.592514,2610.97,NaN,40.18,12.226105,288.2,21 / 31,47051,2021-03-13 18:18:45:573,,,-0.08
2.211,6.7452,4.6729,1.584,7.2208,6.4437,0.7484,-0.6105,-1.0818,-0.6104,-0.0293,-0.1035,8.3916,22,17.8,-20.77,311.3,-48.12,-14.02,2,66.311,13.042434,77.592415,2612.37,NaN,38.95,12.226105,287.7,23 / 31,47551,2021-03-13 18:18:46:073,,,-0.075
1.6152,7.2189,7.1779,1.4991,6.9926,6.7102,-0.1355,0.6359,0.2973,0.0015,0.0365,0.0091,8.3916,21.25,19.42,-16.46,311.46,-45.48,-12.59,2,64.133,13.042434,77.592415,2612.37,NaN,38.95,12.226105,287.7,23 / 31,48051,2021-03-13 18:18:46:573,,,-0.09
1.5557,6.7753,6.4901,1.4655,7.0897,6.615,0.0207,0.1137,0.9281,-0.0074,-0.0601,-0.0084,11.1888,16.95,22.27,-16.3,319.77,-45.78,-12.87,2,64.463,13.042457,77.59232,2612.88,NaN,37.69,12.226105,287.5,22 / 31,48551,2021-03-13 18:18:47:073,,,-0.065
-1.3012,4.6247,7.5383,-2.1437,4.5434,8.4221,-1.8305,-2.031,1.3389,0.4449,-0.3123,0.5141,11.1888,12.97,28.54,-4.38,338.17,-27.6,14.28,2,65.329,13.042457,77.59232,2612.88,NaN,37.69,12.226105,287.5,22 / 31,49051,2021-03-13 18:18:47:573,,,-0.075
0.2242,5.4869,7.8677,0.2891,5.8965,7.8306,0.2062,0.2106,0.8586,0.1184,0.0464,0.0104,11.1888,23.49,23.98,-13.47,318.45,-36.96,-2.11,2,63.776,13.04248,77.592224,2610.87,NaN,37.58,12.226105,289.9,23 / 31,49550,2021-03-13 18:18:48:072,,,-0.08
0.2003,5.6918,8.2531,0.5148,5.854,7.8508,-0.1932,0.2705,-0.0375,-0.0264,-0.0443,0.074,8.3916,22.13,26.82,-11.48,320.35,-36.65,-3.75,2,65.728,13.04248,77.592224,2610.87,NaN,37.58,12.226105,289.9,23 / 31,50051,2021-03-13 18:18:48:573,,,-0.08
0.2991,5.5146,7.7586,0.5688,5.9112,7.8041,-0.4004,-0.3499,-0.0445,0.0796,-0.0891,0.115,5.5944,20.57,23.94,-14.71,321.04,-37.07,-4.17,2,65.235,13.042502,77.592125,2615.34,NaN,37.62,12.226105,287.6,23 / 31,50550,2021-03-13 18:18:49:072,,,-0.085
0.4475,5.2807,6.5041,0.8233,5.9769,7.731,-0.2328,-0.6279,0.3256,-0.0984,-0.0823,-0.042,8.3916,20.51,22.98,-13.52,318.81,-36.9,-5.79,2,65.903,13.042502,77.592125,2615.34,NaN,37.62,12.226105,287.6,23 / 31,51051,2021-03-13 18:18:49:573,,,-0.09
0.7913,5.8532,7.8581,0.8306,5.9674,7.7376,-0.7218,-0.3387,-0.6369,0.0665,0.0164,0.0837,5.5944,22.24,25.93,-12.25,318.82,-37.48,-6.13,2,63.347,13.042531,77.59204,2614.5,NaN,36.07,12.226105,286.1,23 / 31,51551,2021-03-13 18:18:50:073,,,-0.075
0.5912,5.3857,7.0031,0.793,5.8936,7.7979,-0.4067,-0.3907,-0.3808,-0.0048,-0.0963,0.0811,5.5944,25.29,26.1,-15.69,317.42,-36.94,-5.81,2,71.911,13.042531,77.59204,2614.5,NaN,36.07,12.226105,286.1,23 / 31,52051,2021-03-13 18:18:50:573,,,-0.085
1.3925,6.3245,7.9207,0.9474,5.8869,7.7857,1.1204,1.0629,-0.4386,-0.2931,0.029,-0.3342,8.3916,22.96,23.43,-13.49,315.08,-36.89,-6.94,2,73.302,13.042554,77.59194,2612.73,NaN,35.96,12.226105,285.9,22 / 31,52550,2021-03-13 18:18:51:072,,,-0.095
1.5153,6.3044,8.5466,0.9009,5.9347,7.7549,-0.0694,0.0866,-0.5371,0.0284,0.2447,-0.1492,8.3916,23.67,22.28,-13.52,313.79,-37.07,-6.33,2,69.216,13.042554,77.59194,2612.73,NaN,35.96,12.226105,285.9,22 / 31,53051,2021-03-13 18:18:51:573,,,-0.105
-0.6486,4.8029,7.2678,-0.0412,5.6943,7.984,0.0174,-0.1145,0.7322,-0.2372,0.0694,-0.1603,8.3916,32.01,30.17,-20.15,317.59,-35.99,-1.4,2,62.82,13.042579,77.59186,2611.99,NaN,35.68,12.226105,284.7,22 / 31,53551,2021-03-13 18:18:52:073,,,-0.09
-0.1705,4.8826,7.065,0.0169,5.5898,8.0576,0.1019,-0.1567,-1.0485,-0.1071,0.0194,-0.058,8.3916,29.02,31.62,-9.17,317.25,-34.75,-0.12,2,63.667,13.042579,77.59186,2611.99,NaN,35.68,12.226105,284.7,22 / 31,54051,2021-03-13 18:18:52:573,,,-0.095
-0.4116,5.5714,7.2948,-0.9257,5.0516,8.3543,0.3376,0.1356,-0.702,-0.4831,0.3136,-0.3996,8.3916,24.84,29.7,-12.45,324.74,-31.01,6.32,2,63.57,13.042604,77.591774,2610.3,NaN,35.57,12.226105,286.9,22 / 31,54551,2021-03-13 18:18:53:073,,,-0.07
-0.3131,1.2569,9.6202,-0.0893,2.954,9.3507,-1.8296,-2.015,1.7191,1.2928,-2.091,-0.2859,8.3916,12.51,28.66,-3.87,337.99,-8.91,11.14,2,70.928,13.042604,77.591774,2610.3,NaN,35.57,12.226105,286.9,22 / 31,55051,2021-03-13 18:18:53:573,,,-0.045
-0.8631,5.4257,6.9456,-0.4144,6.1837,7.6,1.2517,0.2202,1.0769,0.0256,0.2147,0.0708,8.3916,19.1,22.37,-12.84,323.65,-38.24,0.95,2,69.833,13.042634,77.59168,2610.81,NaN,34.88,12.226105,310.9,22 / 31,55551,2021-03-13 18:18:54:073,,,0.005
0.4595,5.4001,9.7778,0.5102,6.2151,7.5686,-0.1392,-1.1145,-0.1178,-0.0856,-0.4637,0.0449,7.4592,15.97,23.83,-14.45,327.69,-39.33,-3.86,2,69.898,13.042634,77.59168,2610.81,NaN,34.88,12.226105,310.9,22 / 31,56050,2021-03-13 18:18:54:572,,,0.03
1.0037,6.3991,6.8745,1.1094,5.9238,7.7361,-0.6346,0.1781,0.3398,-0.1229,-0.2411,0.079,8.3916,15.84,25.04,-13.93,326.49,-37.16,-8.16,2,65.371,13.042658,77.5916,2614.64,NaN,33.62,12.226105,289.7,22 / 31,56551,2021-03-13 18:18:55:073,,,0.07
0.9387,6.1963,5.9021,1.1424,5.8445,7.7914,0.104,-0.1229,-2.0286,-0.5115,-0.1588,-0.0259,11.1888,17.6,27.1,-14.25,324.77,-36.48,-8.96,2,65.601,13.042658,77.5916,2614.64,NaN,33.62,12.226105,289.7,22 / 31,57051,2021-03-13 18:18:55:573,,,0.195
0.7947,5.5529,6.5845,0.7296,6.2545,7.518,0.5598,-0.3842,-0.2728,0.1498,0.2409,0.0123,11.1888,22.88,24.38,-19.26,318.78,-38.29,-7.14,2,64.324,13.042684,77.59152,2617.03,NaN,34.2,12.226105,287.9,22 / 31,57551,2021-03-13 18:18:56:073,,,0.145
1.7164,6.0615,7.0168,1.3098,6.3192,7.3839,0.4625,0.1036,0.3545,-0.1019,-0.0588,0.0244,11.1888,17.3,20.34,-16.22,320.2,-39.98,-10.25,2,66.22,13.042684,77.59152,2617.03,NaN,34.2,12.226105,287.9,22 / 31,58051,2021-03-13 18:18:56:573,,,0.05
1.2451,6.2209,8.2658,1.253,6.2827,7.4248,-0.1768,0.4074,1.1043,-0.1262,-0.2481,0.0388,11.1888,17.03,22.23,-12.14,320.38,-39.84,-9.58,2,64.62,13.042706,77.591446,2619.41,NaN,33.26,12.226105,285.8,23 / 31,58551,2021-03-13 18:18:57:073,,,-0.015
1.1401,5.8112,7.6659,1.2428,6.2446,7.4586,0.3241,-0.0638,0.9519,0.1235,0.0427,-0.0248,13.986,15.27,27.14,-9.71,327.05,-39.7,-9.82,2,63.876,13.042706,77.591446,2619.41,NaN,33.26,12.226105,285.8,23 / 31,59051,2021-03-13 18:18:57:573,,,-0.025
1.2725,5.8467,8.3188,1.1376,6.3056,7.424,0.1977,0.4024,1.2166,0.1488,0.1537,-0.0405,13.986,14.9,27.83,-15.66,330.01,-40.42,-9.06,2,66.323,13.042726,77.59137,2621.69,NaN,33.19,12.226105,285.5,23 / 31,59551,2021-03-13 18:18:58:073,,,-0.115
0.3295,5.9979,6.3427,1.213,6.1636,7.5305,-0.0629,-0.2491,0.1527,-0.0747,-0.1538,0.0768,11.1888,16.51,26.8,-15.13,326.12,-38.91,-9.28,2,66.806,13.042726,77.59137,2621.69,NaN,33.19,12.226105,285.5,23 / 31,60051,2021-03-13 18:18:58:573,,,-0.18
1.2715,6.1203,6.765,1.2253,6.2633,7.4458,-0.2714,-0.021,0.3663,0.0812,0.0171,0.0201,13.986,17.37,26.56,-14.18,325.48,-39.36,-9.74,2,67.644,13.042745,77.59128,2623.87,NaN,32.51,12.226105,284.7,23 / 31,60551,2021-03-13 18:18:59:073,,,-0.19
1.1507,5.8567,6.6224,1.3206,6.1931,7.4881,-0.0729,0.1337,0.4007,0.0163,-0.0185,0.0029,16.7832,18.13,28.28,-14.37,324.74,-39.29,-9.81,2,65.483,13.042745,77.59128,2623.87,NaN,32.51,12.226105,284.7,23 / 31,61050,2021-03-13 18:18:59:572,,,-0.185
1.3792,5.8026,6.9145,1.4331,6.2953,7.3815,0.1166,-0.0165,-0.3284,0.0867,0.0777,-0.0019,13.986,15.96,26.34,-16.45,326.24,-39.94,-10.99,2,64.409,13.042765,77.5912,2624.13,NaN,32.29,12.226105,284.2,22 / 31,61551,2021-03-13 18:19:00:073,,,-0.185
1.069,6.0393,7.4617,1.5102,6.2061,7.4413,-0.0707,0.0047,-0.4106,-0.0108,-0.0311,0.0056,13.986,19,25.77,-15.79,321.76,-39.26,-11.47,2,62.144,13.042765,77.5912,2624.13,NaN,32.29,12.226105,284.2,22 / 31,62051,2021-03-13 18:19:00:573,,,-0.215
1.2609,6.2212,7.1867,1.4447,6.2179,7.4445,-0.2183,-0.1132,-0.3354,-0.035,0.0078,0.0191,16.7832,21.19,27.8,-13.81,320.08,-39.35,-10.98,2,61.805,13.042783,77.59112,2626.74,NaN,31.97,12.226105,284.3,23 / 31,62551,2021-03-13 18:19:01:073,,,0.01
1.0232,6.1491,6.841,1.3471,6.2599,7.4276,-0.2636,-0.3072,-0.8232,-0.0029,0.0713,-3.00E-04,16.7832,19.62,26.84,-15.37,321.16,-40.13,-10.47,2,64.976,13.042783,77.59112,2626.74,NaN,31.97,12.226105,284.3,23 / 31,63050,2021-03-13 18:19:01:572,,,0.575
0.8238,6.2428,7.0739,1.2763,6.2621,7.4382,-0.6108,-0.1521,-0.3319,-0.0696,-0.0731,0.0421,13.986,20.36,26.48,-14.74,320.81,-39.68,-9.74,2,66.559,13.0428,77.59104,2626.04,NaN,31.82,12.226105,283,22 / 31,63551,2021-03-13 18:19:02:073,,,1.185
1.1942,6.2821,6.9843,1.3292,6.2724,7.4203,-0.416,-0.0402,0.476,-0.0232,-0.0135,0.0159,16.7832,21.04,26.83,-16.45,320.46,-39.76,-10.16,2,67.346,13.0428,77.59104,2626.04,NaN,31.82,12.226105,283,22 / 31,64051,2021-03-13 18:19:02:573,,,0.96
0.9418,5.8077,8.2614,1.2792,6.1687,7.5154,-0.2295,0.2024,0.8785,0.1447,0.1379,0.0377,16.7832,17.02,24.13,-17.62,324.79,-38.98,-9.66,2,63.325,13.042819,77.59096,2626.43,NaN,31.36,12.226105,281.3,22 / 31,64551,2021-03-13 18:19:03:073,,,-0.16
0.4369,5.648,7.3174,1.0797,6.1602,7.5536,-0.5576,-0.2581,0.8732,0.08,-0.0616,0.0721,16.7832,14.27,21.17,-16.73,326.89,-38.48,-9.42,2,67.809,13.042819,77.59096,2626.43,NaN,31.36,12.226105,281.3,22 / 31,65051,2021-03-13 18:19:03:573,,,-0.74
-0.2505,5.6521,7.3352,0.9713,6.1907,7.5433,-0.9363,-0.6502,0.2375,-0.416,-0.0013,-0.1116,16.7832,15.73,17.52,-13.92,320.52,-39.14,-7.34,2,69.081,13.042834,77.59089,2625.56,NaN,30.46,12.226105,276.5,22 / 31,65550,2021-03-13 18:19:04:072,,,-0.64
-0.8241,5.4859,7.9412,0.6693,6.0667,7.6758,-0.7095,0.7048,1.1255,0.3072,0.1076,0.1384,13.986,16.63,19.54,-7.95,318.22,-38.22,-4.98,2,72.099,13.042834,77.59089,2625.56,NaN,30.46,12.226105,276.5,22 / 31,66051,2021-03-13 18:19:04:573,,,-0.35
0.4848,6.0386,6.9566,0.8039,6.1176,7.6223,-0.4181,0.1282,-0.238,-0.0856,0.0291,0.0787,16.7832,17.44,16.92,-8.27,314,-38.6,-6.02,2,66.657,13.04284,77.5908,2628.32,NaN,30.1,12.226105,269.8,22 / 31,66552,2021-03-13 18:19:05:074,,,-0.175
0.1938,6.278,8.4522,0.9924,5.9762,7.7117,-0.7122,0.2032,-0.0628,-0.0243,0.1121,0.1126,16.7832,16.56,16.66,-9.68,314.74,-38.62,-7.76,2,66.881,13.04284,77.5908,2628.32,NaN,30.1,12.226105,269.8,22 / 31,67051,2021-03-13 18:19:05:573,,,-0.145
0.4311,5.5779,6.4011,0.6995,6.1081,7.6402,-1.2691,-0.8625,-0.3176,0.0626,0.1737,0.1089,16.7832,13.98,11.26,-8.1,310.94,-37.78,-5.48,2,66.414,13.042839,77.59073,2628.14,NaN,29.66,12.226105,262.4,21 / 31,67552,2021-03-13 18:19:06:074,,,-0.15
-0.1298,5.5519,7.5096,0.6723,6.1284,7.6264,-0.6763,-0.0415,-0.6468,0.0629,0.0345,0.1287,16.7832,12.57,9.99,-7.28,310.17,-38.68,-5.04,2,64.449,13.042839,77.59073,2628.14,NaN,29.66,12.226105,262.4,21 / 31,68053,2021-03-13 18:19:06:575,,,-0.145
0.4947,5.5974,7.5982,0.8481,5.9099,7.7798,-0.544,-0.4758,-1.0927,-0.0509,0.0513,0.1387,16.7832,15.66,4.08,-7.8,292.48,-37.06,-6.22,2,65.807,13.042828,77.59065,2630.91,NaN,28.51,12.226105,254.7,21 / 31,68551,2021-03-13 18:19:07:073,,,-0.105
0.9082,5.7541,8.9149,0.7812,5.8966,7.7968,-0.2466,-0.0846,0.2784,0.1683,0.1656,0.1037,19.5804,18.32,0.95,-2.56,275.02,-36.83,-5.27,2,62.458,13.042828,77.59065,2630.91,NaN,28.51,12.226105,254.7,21 / 31,69051,2021-03-13 18:19:07:573,,,-0.12
0.0563,5.3009,5.6815,0.5627,5.9351,7.7864,-0.1559,-0.554,-1.6945,-0.3081,0.0743,0.0899,16.7832,15.37,1.73,2.49,268.67,-36.79,-4.81,2,63.611,13.042805,77.59059,2628.91,NaN,26.06,12.226105,246,22 / 31,69551,2021-03-13 18:19:08:073,,,-0.09
0.6073,5.7448,8.1129,0.5033,5.8504,7.8543,0.1088,-6.00E-04,0.6677,0.0386,-0.0409,0.1567,16.7832,12.99,2.06,2.9,267.06,-36.66,-3.51,2,62.587,13.042805,77.59059,2628.91,NaN,26.06,12.226105,246,22 / 31,70051,2021-03-13 18:19:08:573,,,-0.085
0.7656,5.4534,7.5879,0.5129,5.8635,7.8439,-0.5264,-0.2526,-0.3878,0.0526,0.0249,0.1774,13.0536,13.76,-1.59,2.57,254.04,-36.72,-3.74,2,65.815,13.042776,77.59054,2630.88,NaN,25.85,12.226105,237.1,22 / 31,70551,2021-03-13 18:19:09:073,,,-0.07
0.7198,5.6723,6.5547,0.8339,5.8898,7.7965,0.1101,-0.1772,-0.1737,-0.0871,0.0143,0.1211,19.5804,13.79,-2.97,0.7,254.36,-36.75,-5.97,2,67.679,13.042776,77.59054,2630.88,NaN,25.85,12.226105,237.1,22 / 31,71051,2021-03-13 18:19:09:573,,,-0.04
1.3912,5.7434,7.8318,1.0174,5.7935,7.8467,0.5903,0.1094,0.368,-0.0303,0.1345,0.0715,19.5804,13.76,-8.67,2.4,235.27,-36.53,-7.18,2,64.992,13.042745,77.59048,2629.98,NaN,24.52,12.226105,229.4,22 / 31,71553,2021-03-13 18:19:10:075,,,-0.02
1.2178,5.7968,7.2336,0.9761,5.8274,7.8268,0.0469,-0.0518,0.1145,-0.0157,0.0654,0.0655,16.7832,13.17,-8.05,5.54,227.94,-36.04,-7.31,2,67.314,13.042745,77.59048,2629.98,NaN,24.52,12.226105,229.4,22 / 31,72051,2021-03-13 18:19:10:573,,,0.005
1.5256,5.5119,7.2504,0.985,5.7853,7.8569,-0.1677,0.1167,0.5815,0.1031,0.0019,0.124,16.7832,12.77,-9.83,8.99,219.49,-36.15,-7.15,2,63.28,13.042706,77.59043,2630.84,NaN,23.26,12.226105,222.4,21 / 32,72552,2021-03-13 18:19:11:074,,,0.02
1.228,6.2681,7.1512,0.9804,6.2701,7.4763,0.4089,0.057,0.1628,0.1828,0.2043,0.1133,19.5804,12.33,-9.31,9.16,218.11,-38.16,-7.82,2,62.79,13.042706,77.59043,2630.84,NaN,23.26,12.226105,222.4,21 / 32,73051,2021-03-13 18:19:11:573,,,0.045
2.2041,6.6956,4.4588,0.7875,7.2709,6.5333,0.7464,-0.5001,-0.6877,0.2222,0.1215,0.0167,22.3776,8.76,-8.12,13.48,208.36,-43.82,-3.57,2,67.221,13.042659,77.5904,2630.3,NaN,23,12.226105,212.4,22 / 32,73551,2021-03-13 18:19:12:073,,,0.08
1.3159,6.5263,5.4739,1.1202,7.2254,6.5352,-0.0827,-0.8689,-0.6836,0.0892,0.0952,0.0265,19.5804,7.69,-8.71,13.94,197.75,-47.46,-9.73,2,70.449,13.042659,77.5904,2630.3,NaN,23,12.226105,212.4,22 / 32,74051,2021-03-13 18:19:12:573,,,0.115
0.5153,6.0434,6.4247,1.0738,6.9924,6.7914,1.5161,0.379,3.1161,-0.3594,-0.5172,0.167,22.3776,4.74,-8.97,12.72,190.34,-45.31,-8.93,2,66.987,13.042626,77.59036,2627.29,NaN,22,13.058021,203.3,22 / 32,74550,2021-03-13 18:19:13:072,,,0.14
1.2574,6.7456,6.7414,1.0109,6.8675,6.9272,0.3644,-0.2258,0.2776,-0.0683,0.0382,0.0719,22.3776,5.06,-6.61,12.83,191.95,-44.45,-8.3,2,64.461,13.042626,77.59036,2627.29,NaN,22,13.058021,203.3,22 / 32,75051,2021-03-13 18:19:13:573,,,0.165
1.0532,6.9853,7.0352,1.1204,6.7081,7.0651,0.5642,-0.1975,-3.0246,-0.2709,0.1704,0.0543,19.5804,5.67,-11.08,9.66,195.78,-43.16,-9.01,2,71.414,13.042576,77.59034,2626.55,NaN,20.56,13.558985,197.7,22 / 32,75551,2021-03-13 18:19:14:073,,,0.21
1.5717,6.6669,5.9357,1.1768,6.9018,6.8666,0.1993,-0.1432,-0.4007,0.0189,-0.0717,0.0854,22.3776,5.67,-11.42,11.67,192.99,-44.73,-9.73,2,70.64,13.042576,77.59034,2626.55,NaN,20.56,13.558985,197.7,22 / 32,76051,2021-03-13 18:19:14:573,,,0.19
1.5386,7.1939,6.3967,1.3671,6.8581,6.8751,0.4143,0.3795,-0.7502,-0.1032,-0.0123,0.0805,25.1748,6.13,-13.26,10.55,191.96,-44.37,-11.25,2,62.937,13.042537,77.59031,2627.37,NaN,17.93,12.365539,192.9,23 / 32,76551,2021-03-13 18:19:15:073,,,0.22
1.8635,6.7753,6.2401,1.4492,6.9347,6.7809,0.5862,0.3294,-0.1438,-0.0225,-6.00E-04,0.0353,22.3776,5.46,-14.06,11.82,187.23,-44.94,-11.97,2,62.724,13.042537,77.59031,2627.37,NaN,17.93,12.365539,192.9,23 / 32,77051,2021-03-13 18:19:15:573,,,0.21
1.6244,6.7818,6.1911,1.7482,7.013,6.6281,0.3391,0.2068,-0.5952,-0.101,0.0379,-0.0038,22.3776,6.15,-11.84,11.49,189.94,-45.65,-14.78,2,61.675,13.042482,77.5903,2624.78,NaN,18.65,12.226105,189.4,22 / 32,77550,2021-03-13 18:19:16:072,,,0.215
2.1337,7.0335,6.5106,1.9164,6.9826,6.6137,-0.1996,0.0235,0.2396,0.0477,-0.0417,0.0474,22.3776,4.98,-10.89,9.85,187.4,-45.4,-16.16,2,59.291,13.042482,77.5903,2624.78,NaN,18.65,12.226105,189.4,22 / 32,78051,2021-03-13 18:19:16:573,,,0.215
2.1545,7.1806,7.0924,1.4962,7.1879,6.5012,0.7057,0.11,0.146,-0.1311,0.212,-0.3224,17.7156,3.6,-13.85,7.38,188.72,-47.14,-12.96,2,59.084,13.042442,77.590294,2624.16,NaN,17.46,12.226105,188.5,22 / 32,78551,2021-03-13 18:19:17:073,,,0.16
-0.0665,6.1381,6.7113,0.2288,6.4144,7.4144,0.3435,0.5194,0.2228,0.0967,-0.2554,-0.1303,22.3776,3.83,-17.72,3.5,192.81,-41.33,-3.97,2,71.286,13.042442,77.590294,2624.16,NaN,17.46,12.226105,188.5,22 / 32,79051,2021-03-13 18:19:17:573,,,0.135
1.885,5.8956,6.7452,1.3944,6.5607,7.1542,0.1262,-0.4245,0.531,-0.5331,0.4585,0.0979,22.3776,4.98,-22.37,8.91,187.38,-40.48,-12.14,2,69.686,13.042404,77.59029,2621.7,NaN,16.38,12.226105,188.2,22 / 32,79551,2021-03-13 18:19:18:073,,,0.1
1.7742,6.3286,7.354,1.5188,6.3463,7.3204,-0.501,-5.00E-04,-2.3784,-0.3125,-0.098,0.0468,22.3776,6.33,-20.57,13.67,186.73,-40.33,-11.72,2,71.764,13.042404,77.59029,2621.7,NaN,16.38,12.226105,188.2,22 / 32,80051,2021-03-13 18:19:18:573,,,0.05
1.4172,6.6327,5.4394,1.3369,6.4827,7.2359,0.7945,-0.3629,-1.1561,-0.1419,-0.0246,-0.0506,19.5804,6.12,-18.76,15.03,187.32,-41.38,-10.47,2,61.316,13.042367,77.59028,2620.58,NaN,15.95,12.226105,190.6,22 / 32,80550,2021-03-13 18:19:19:072,,,0.035
1.5605,6.6334,7.6139,1.5258,6.604,7.0873,-0.1064,0.1571,0.3491,-0.1812,-0.1945,0.0066,19.5804,7.68,-17.04,16.79,190.23,-43.84,-11.36,2,58.206,13.042367,77.59028,2620.58,NaN,15.95,12.226105,190.6,22 / 32,81051,2021-03-13 18:19:19:573,,,-0.005
1.5929,5.8635,7.2982,1.5523,6.502,7.1753,0.2519,-0.5468,0.413,0.1046,0.182,0.0358,19.5804,9.22,-15.57,17.96,190.7,-40.89,-13.04,2,58.675,13.042331,77.59026,2617.9,NaN,15.05,12.226105,188.9,22 / 32,81551,2021-03-13 18:19:20:073,,,0.005
1.4151,5.3751,8.0349,1.7319,6.2862,7.3249,-0.2732,-0.6508,0.6229,-0.0428,0.04,-0.0524,17.7156,6.03,-14.33,14.6,185.89,-40.16,-14.09,2,62.372,13.042331,77.59026,2617.9,NaN,15.05,12.226105,188.9,22 / 32,82051,2021-03-13 18:19:20:573,,,-0.005
1.5461,5.6272,7.1019,1.6792,6.4877,7.1596,-0.1412,-0.681,0.1608,-0.0313,-0.0929,-0.0123,19.5804,6.61,-14.65,15,188.77,-41.42,-13.2,2,61.737,13.042296,77.590256,2619.97,NaN,12.78,12.226105,187.2,22 / 32,82551,2021-03-13 18:19:21:073,,,-0.015
1.9114,6.8023,7.343,1.7987,6.4791,7.1383,0.0063,0.3628,-0.8013,0.056,0.0379,-0.0156,19.5804,7.6,-15.7,16.57,188.62,-42.19,-13.93,2,63.394,13.042296,77.590256,2619.97,NaN,12.78,12.226105,187.2,22 / 32,83050,2021-03-13 18:19:21:572,,,-0.02
1.5492,6.7326,6.4918,1.6592,6.6442,7.0194,-0.1212,0.2921,-0.1303,0.02,-0.0356,0.0352,19.5804,7.36,-14.6,18.34,186.53,-42.04,-13.09,2,61.997,13.042274,77.59025,2617.73,NaN,9,12.226105,187.9,22 / 32,83551,2021-03-13 18:19:22:073,,,-0.01
1.7687,6.6012,6.0318,1.652,6.7883,6.8819,-0.1153,0.1698,-0.1757,0.0424,0.0423,-0.0025,19.5804,7,-13.91,17.64,186.17,-43.73,-13.74,2,62.334,13.042274,77.59025,2617.73,NaN,9,12.226105,187.9,22 / 32,84051,2021-03-13 18:19:22:573,,,0
0.8764,7.3554,5.6945,1.2488,6.8424,6.9132,0.1065,-0.2453,0.8189,0.3547,0.3574,-0.0631,19.5804,4.65,-12.24,17.86,184.56,-44.25,-10.24,2,73.434,13.042252,77.59024,2618.45,NaN,8.71,12.226105,188.1,22 / 32,84551,2021-03-13 18:19:23:073,,,-0.02
1.5413,7.0452,6.9559,1.3806,6.9726,6.7563,0.38,-0.1452,-0.562,0.06,0.0119,-0.0314,19.5804,5.54,-12.93,18.22,186.22,-45.38,-11,2,65.641,13.042252,77.59024,2618.45,NaN,8.71,12.226105,188.1,22 / 32,85051,2021-03-13 18:19:23:573,,,-0.005
1.4199,7.0551,7.0174,1.5411,7.078,6.6103,-0.0505,0.1747,0.5904,0.1459,0.0409,-0.0264,22.3776,4.58,-11.93,17.79,181.76,-46.04,-13.47,2,59.277,13.04223,77.59023,2619.22,NaN,8.03,12.226105,187,22 / 32,85551,2021-03-13 18:19:24:073,,,-0.04
1.4226,6.6884,5.8348,1.5278,7.1818,6.5007,0.2277,-0.103,0.3389,0.0485,0.051,-0.0256,19.5804,4.27,-11.52,16.62,179.66,-46.56,-13.65,2,61.606,13.04223,77.59023,2619.22,NaN,8.03,12.226105,187,22 / 32,86050,2021-03-13 18:19:24:572,,,-0.035
1.6097,7.1101,6.3926,1.5467,7.1637,6.5161,0.0807,0.0635,-0.09,0.0309,0.0126,-0.0047,16.7832,5.15,-13.06,16.78,182.54,-46.84,-13.26,2,59.954,13.042209,77.590225,2617.31,NaN,7.6,12.226105,187.2,22 / 32,86551,2021-03-13 18:19:25:073,,,-0.05
1.346,6.7934,8.1276,1.3299,7.2437,6.4754,0.02,-0.1266,0.1849,0.0506,4.00E-04,-0.0332,16.7832,5.31,-13.09,15.85,183.68,-47.04,-12.71,2,62.243,13.042209,77.590225,2617.31,NaN,7.6,12.226105,187.2,22 / 32,87051,2021-03-13 18:19:25:573,,,-0.04
1.4322,6.8547,6.1569,1.4623,7.1961,6.4998,0.0882,0.2468,-0.3847,0.0451,0.0352,0.0219,22.3776,3.84,-14.71,16.55,180.43,-47.21,-12.68,2,61.736,13.042193,77.590225,2618.06,NaN,6.23,12.226105,186.6,22 / 32,87551,2021-03-13 18:19:26:073,,,-0.055
1.2369,7.9679,6.5287,1.3747,7.3076,6.3937,0.0181,0.9321,0.0689,0.0851,0.0382,-0.0247,16.7832,3.92,-15.55,18.55,179.81,-48.17,-12.13,2,59.226,13.042193,77.590225,2618.06,NaN,6.23,12.226105,186.6,22 / 32,88050,2021-03-13 18:19:26:572,,,-0.075
1.5307,7.448,6.3026,1.5161,7.4042,6.249,0.0298,-0.0718,-0.3829,0.0153,-0.0532,-0.0415,19.5804,4.3,-12.89,21.95,177.07,-49.03,-13.64,2,62.499,13.042172,77.59022,2618.46,NaN,9.25,12.226105,186.5,23 / 32,88550,2021-03-13 18:19:27:072,,,-0.05
1.4527,7.2151,6.0071,1.6156,7.4715,6.143,-0.0747,0.0733,-0.0083,-0.0555,-0.0832,0.0354,16.7832,3.36,-10.02,19.47,175.6,-50.31,-13.82,2,62.604,13.042172,77.59022,2618.46,NaN,9.25,12.226105,186.5,23 / 32,89051,2021-03-13 18:19:27:573,,,-0.075
1.728,7.6676,6.1224,1.6573,7.5221,6.0698,-0.1063,0.3225,-0.1975,-0.0177,-0.0711,0.0224,12.1212,3.8,-10.86,16.65,178.27,-50.09,-15.27,2,58.859,13.042147,77.59022,2620.94,NaN,9.5,12.226105,188.1,23 / 32,89550,2021-03-13 18:19:28:072,,,-0.09
2.0718,6.5636,10.6059,1.7682,6.6981,6.9411,0.1121,1.3928,0.8014,0.2927,-0.4644,-0.3358,13.986,4.89,-15.6,14.06,183.65,-43.08,-14.29,2,59.563,13.042147,77.59022,2620.94,NaN,9.5,12.226105,188.1,23 / 32,90051,2021-03-13 18:19:28:573,,,-0.08
1.3074,7.6546,5.1254,1.3151,7.9507,5.5881,0.1908,-0.0911,-0.1267,0.0029,-0.015,0.0437,11.1888,4.22,-12.71,20.61,177.89,-54.17,-13.24,2,72.337,13.042119,77.59021,2623.32,NaN,10.08,12.226105,189.9,23 / 32,90551,2021-03-13 18:19:29:073,,,-0.09
1.5215,7.473,5.4247,1.6267,7.9903,5.4478,-0.0153,-0.2702,0.5468,0.1133,0.0095,-0.0239,13.986,4.61,-11.62,22.68,176.17,-53.32,-16.5,2,65.656,13.042119,77.59021,2623.32,NaN,10.08,12.226105,189.9,23 / 32,91051,2021-03-13 18:19:29:573,,,-0.08
1.4517,8.0411,5.8057,1.6288,8.0454,5.3655,-0.0763,-0.3736,0.2031,0.2478,0.0258,0.0203,13.986,4.9,-6.65,25.23,174.3,-55.12,-16.89,2,60.603,13.042085,77.5902,2620.32,NaN,12.49,12.226105,188.2,24 / 32,91551,2021-03-13 18:19:30:073,,,-0.075
1.5591,7.7155,5.5543,1.6482,7.9731,5.4666,0.2785,0.1136,0.9915,0.0598,-0.0046,0.0483,16.7832,4.44,-5.32,23.55,172.17,-54.39,-16.78,2,63.024,13.042085,77.5902,2620.32,NaN,12.49,12.226105,188.2,24 / 32,92051,2021-03-13 18:19:30:573,,,-0.085
1.4657,7.1744,6.0321,1.6037,7.9318,5.5395,-0.15,-0.2389,1.3055,0.2612,-0.065,5.00E-04,16.7832,3.73,-4.57,21.65,173.8,-53.98,-16.15,2,63.947,13.042051,77.590195,2620.04,NaN,12.89,12.226105,186.9,24 / 32,92550,2021-03-13 18:19:31:072,,,-0.085
1.3176,6.8119,5.895,1.5737,8.1142,5.2776,-0.304,-0.6018,0.4206,0.2765,-0.0431,0.0138,13.986,5.14,-5.63,21.98,176.54,-55.58,-16.18,2,62.447,13.042051,77.590195,2620.04,NaN,12.89,12.226105,186.9,24 / 32,93051,2021-03-13 18:19:31:573,,,-0.095
1.7975,6.6522,6.5827,1.6823,7.9622,5.472,-0.0105,-1.2492,2.5203,-0.2657,-0.0573,2.00E-04,16.7832,7.84,-6.19,23.55,181.2,-53.56,-17.3,2,68.545,13.04202,77.590195,2619.24,NaN,12.17,12.226105,188.7,24 / 32,93552,2021-03-13 18:19:32:074,,,-0.095
2.2226,7.9385,3.4249,1.7226,8.1736,5.1377,-0.0828,-0.2524,1.3508,0.3987,-0.077,0.0577,16.7832,7.49,-1.15,25.31,176.62,-56.46,-18.54,2,62.278,13.04202,77.590195,2619.24,NaN,12.17,12.226105,188.7,24 / 32,94051,2021-03-13 18:19:32:573,,,-0.105
1.3953,7.5678,4.6965,1.6332,8.1556,5.1951,-0.0932,-0.501,0.117,-0.0454,-0.0135,-0.0113,16.7832,6.2,-1.09,20.74,178.24,-56.27,-17.45,2,61.233,13.041993,77.59019,2621.03,NaN,10.37,12.226105,188.3,24 / 32,94551,2021-03-13 18:19:33:073,,,-0.08
1.5864,7.2343,5.791,1.7087,7.9585,5.4692,-0.1703,-0.44,0.9586,0.1616,0.0038,0.0581,10.2564,6.82,-1.97,19.49,184.17,-53.7,-16.62,2,65.496,13.041993,77.59019,2621.03,NaN,10.37,12.226105,188.3,24 / 32,95051,2021-03-13 18:19:33:573,,,-0.115
1.5789,7.9628,6.0653,1.6474,7.7266,5.81,0.0113,0.1102,-0.1895,-0.2334,0.0152,-0.0299,16.7832,6.85,-3.09,18.05,185.14,-52.82,-16.67,2,61.939,13.04197,77.59018,2620.98,NaN,8.71,12.226105,189.4,24 / 32,95551,2021-03-13 18:19:34:073,,,-0.1
1.174,8.9348,5.1757,1.5152,7.988,5.4833,-0.0867,1.0185,-0.7806,-0.1357,0.2085,-0.094,13.986,5.72,-1.98,17.62,180.61,-55.28,-17.9,2,71.091,13.04197,77.59018,2620.98,NaN,8.71,12.226105,189.4,24 / 32,96051,2021-03-13 18:19:34:573,,,-0.095
1.7455,6.9422,5.3936,1.4849,7.7099,5.8757,0.2581,0.4719,-0.0814,-0.1416,0.0557,-0.0588,19.5804,5.9,-4.95,15.33,187.78,-51.83,-14.18,2,67.348,13.041952,77.59016,2618.13,NaN,6.55,12.226105,188.7,24 / 32,96551,2021-03-13 18:19:35:073,,,-0.1
1.4363,7.4036,5.7404,1.5569,7.7614,5.7885,-0.1589,0.0633,0.8599,0.2161,-0.1043,0.0392,10.2564,6.04,-5.34,15.98,186.85,-51.35,-13.94,2,61.226,13.041952,77.59016,2618.13,NaN,6.55,12.226105,188.7,24 / 32,97051,2021-03-13 18:19:35:573,,,-0.075
1.2506,7.642,6.1545,1.5679,7.7444,5.8083,-0.3127,0.192,0.3484,0.1303,-0.0113,0.0278,16.7832,7.37,-5.77,16.49,188.38,-52.08,-15.23,2,59.212,13.041938,77.59016,2616.07,NaN,6.12,12.226105,190.7,23 / 32,97551,2021-03-13 18:19:36:073,,,-0.005
2.4285,7.9518,5.1743,1.7703,7.927,5.4954,0.5669,0.1828,-0.1893,-0.0132,-0.0745,-1.00E-04,13.986,6.81,-4.94,17.12,185.13,-53.76,-17.41,2,63.062,13.041938,77.59016,2616.07,NaN,6.12,12.226105,190.7,23 / 32,98051,2021-03-13 18:19:36:573,,,0.01
0.9681,8.3516,4.729,1.6481,7.9895,5.4427,-0.1734,0.642,-0.4292,-0.0982,-0.0213,0.0173,13.986,6.4,-5.75,16.64,182.3,-54.78,-17.12,2,64.278,13.041926,77.59014,2615.24,NaN,5.69,12.226105,190.2,24 / 32,98550,2021-03-13 18:19:37:072,,,0.055
1.4657,7.6998,4.1934,1.6355,8.0083,5.4188,-0.1729,0.0752,0.4128,0.2168,-0.0729,0.0725,13.986,7.79,-6.35,16.96,189.83,-53.28,-15.42,2,64.201,13.041926,77.59014,2615.24,NaN,5.69,12.226105,190.2,24 / 32,99051,2021-03-13 18:19:37:573,,,0.185
1.4414,8.3079,5.3915,1.6543,7.9575,5.4874,0.0469,0.7241,0.5586,0.1815,-0.0313,0.0753,16.7832,7.02,-6.03,15.84,186.76,-53.74,-16.79,2,62.552,13.041915,77.59014,2613.98,NaN,5.58,12.226105,189.9,24 / 32,99551,2021-03-13 18:19:38:073,,,0.145
1.3224,7.9535,3.6626,1.7921,8.0503,5.3057,-0.2432,-0.4794,-2.1916,-0.357,0.0612,-0.1193,16.7832,7.8,-8.68,17.2,185.97,-55.18,-18.66,2,62.404,13.041915,77.59014,2613.98,NaN,5.58,12.226105,189.9,24 / 32,100052,2021-03-13 18:19:38:574,,,0.075
1.7109,7.4935,6.7257,1.421,7.87,5.6758,0.0109,0.4065,0.8138,-0.2657,0.0308,-0.1239,16.7832,9.05,-10.24,16.5,191.19,-53.93,-16.69,2,66.852,13.041898,77.590126,2613.88,NaN,7.67,12.226105,189.8,23 / 32,100550,2021-03-13 18:19:39:072,,,-0.005
0.9517,7.7189,5.0023,1.4709,8.0391,5.4203,-0.3839,0.0929,1.601,0.226,0.0135,-0.054,16.7832,9.42,-9.14,18.8,189.52,-55.06,-15.18,2,65.566,13.041898,77.590126,2613.88,NaN,7.67,12.226105,189.8,23 / 32,101051,2021-03-13 18:19:39:573,,,-0.025
1.4343,7.408,4.6555,1.4805,8.0445,5.4097,0.1037,-0.219,0.2026,0.1424,-0.0709,0.0776,15.8508,8.79,-8.93,20.7,187.54,-55.12,-15.31,2,61.26,13.041875,77.59012,2612.03,NaN,9.47,12.226105,190.7,23 / 32,101550,2021-03-13 18:19:40:072,,,-0.11
1.4886,7.9183,5.4322,1.455,8.006,5.4733,-0.1273,0.4433,-0.2157,0.0289,0.0385,0.0272,19.5804,6,-5.74,19.45,182.66,-54.72,-14.89,2,60.846,13.041875,77.59012,2612.03,NaN,9.47,12.226105,190.7,23 / 32,102051,2021-03-13 18:19:40:573,,,-0.175
1.1459,7.6242,5.1555,1.395,7.9997,5.4981,-0.2201,-0.167,-0.4383,0.0891,0.0451,0.0126,19.5804,4.5,-3.62,16.73,178.95,-54.66,-14.24,2,63.465,13.041847,77.59011,2612.87,NaN,11.05,12.226105,190.6,21 / 32,102551,2021-03-13 18:19:41:073,,,-0.18
1.0416,7.7415,4.6712,1.2862,7.9755,5.5594,-0.4016,-0.1889,0.045,-0.0458,-0.0309,0.0464,22.3776,2.63,-5.89,15.27,178.49,-53.63,-12.88,2,65.579,13.041847,77.59011,2612.87,NaN,11.05,12.226105,190.6,21 / 32,103051,2021-03-13 18:19:41:573,,,-0.22
1.0892,8.2986,5.4544,1.2908,8.0013,5.5212,-0.2407,0.441,-0.7245,-0.1322,0.1277,-1.00E-04,22.3776,2.39,-8.1,13.02,176.22,-54.68,-13.16,2,61.961,13.041813,77.590096,2616.49,NaN,13.57,12.226105,189.2,21 / 32,103551,2021-03-13 18:19:42:073,,,-0.175
0.9359,7.7459,5.7794,1.3096,7.9492,5.5916,-0.1651,0.2065,-0.5483,0.019,0.0463,0.0214,22.3776,2.53,-11.76,15.4,178.53,-54.15,-13.18,2,61.631,13.041813,77.590096,2616.49,NaN,13.57,12.226105,189.2,21 / 32,104051,2021-03-13 18:19:42:573,,,-0.24
0.9537,7.853,6.394,1.2981,7.8668,5.7095,-0.3936,0.4256,0.2936,0.1221,0.0067,0.0776,22.3776,3.39,-12.17,16.73,177.7,-53.34,-12.81,2,62.385,13.041774,77.59008,2617.5,NaN,15.16,12.226105,186.2,21 / 32,104551,2021-03-13 18:19:43:073,,,-0.03
1.3293,8.182,4.5977,1.3214,8.0121,5.4982,-0.0331,0.2506,-0.4337,-0.0532,0.0768,0.0134,19.5804,1.48,-9.85,15.08,171.81,-54.21,-13.66,2,59.35,13.041774,77.59008,2617.5,NaN,15.16,12.226105,186.2,21 / 32,105050,2021-03-13 18:19:43:572,,,0.53
0.9168,7.6834,6.3235,1.3019,8.0659,5.4238,-0.4353,0.0737,0.4291,-0.0712,0.0205,0.0074,25.1748,-1.49,-13.95,14.52,166.81,-55.23,-14.1,2,63.413,13.04173,77.59007,2615.86,NaN,17.86,12.226105,183.7,21 / 32,105550,2021-03-13 18:19:44:072,,,1.21
1.4377,7.6557,5.0317,1.4056,8.0545,5.4148,0.211,-0.2996,0.6054,0.0741,-0.0517,0.0517,22.3776,-0.66,-13.65,17.67,166.04,-55.22,-14.55,2,60.679,13.04173,77.59007,2615.86,NaN,17.86,12.226105,183.7,21 / 32,106051,2021-03-13 18:19:44:573,,,1.22
1.398,8.2446,3.232,0.9561,8.6133,4.59,0.6717,-0.5451,-1.6483,0.0681,0.2903,-0.1827,18.648,-2.84,-11.01,22.51,162.71,-61.44,-11.77,2,61.169,13.041683,77.590034,2616.85,NaN,19.94,12.226105,182.6,21 / 32,106552,2021-03-13 18:19:45:074,,,-0.105
0.2629,8.0746,4.9585,0.6369,8.3868,5.0425,0.0012,0.0186,-1.302,-0.4008,-0.222,-0.0181,18.648,-2.5,-9.46,20.96,168.25,-60.61,-7.29,2,60.979,13.041683,77.590034,2616.85,NaN,19.94,12.226105,182.6,21 / 32,107051,2021-03-13 18:19:45:573,,,-0.795
1.0758,7.1997,5.1008,1.1389,8.1612,5.3168,0.0627,-0.493,0.4791,0.204,0.0211,0.0981,22.3776,0.1,-10.91,18.27,170.4,-55.26,-11.26,2,61.923,13.041683,77.590034,2616.85,NaN,19.94,12.226105,182.6,21 / 32,107551,2021-03-13 18:19:46:073,,,-0.69
0.5214,7.7148,5.1193,0.8672,8.3701,5.0358,-0.4068,-0.6,0.7249,0.1476,0.2119,-0.0314,27.972,2.22,-14.69,17.21,176.65,-56.53,-11.12,2,61.955,13.041683,77.590034,2616.85,NaN,19.94,12.226105,182.6,21 / 32,108052,2021-03-13 18:19:46:574,,,-0.375
0.8132,7.734,4.2146,0.8555,8.4207,4.9528,-0.2447,-0.2886,-0.2606,-0.0399,-0.142,0.057,25.1748,-0.62,-13.44,23.68,169.3,-59.17,-9.8,2,64.247,13.041683,77.590034,2616.85,NaN,19.94,12.226105,182.6,21 / 32,108552,2021-03-13 18:19:47:074,,,-0.165
0.6394,8.4597,4.0809,1.1146,8.272,5.1481,-0.1152,0.2487,-2.0353,-0.259,0.0485,-0.0661,22.3776,-3.26,-10.35,22.6,161.11,-57.66,-13.05,2,64.114,13.041683,77.590034,2616.85,NaN,19.94,12.226105,182.6,21 / 32,109051,2021-03-13 18:19:47:573,,,-0.155
0.914,7.9347,5.7219,1.0501,8.0915,5.4401,0.2262,0.1513,-0.4157,-0.158,-0.0342,-0.051,25.1748,-3.31,-10.28,25.17,162.22,-57.11,-12.05,2,63.177,13.041683,77.590034,2616.85,NaN,19.94,12.226105,182.6,21 / 32,109552,2021-03-13 18:19:48:074,,,-0.135
0.8987,8.0479,5.6791,0.8259,8.333,5.1039,-0.2968,-0.0167,1.3616,-0.2994,0.1604,-0.0739,25.1748,-3.27,-8.01,25.66,164.71,-57.86,-8.93,2,63.136,13.041683,77.590034,2616.85,NaN,19.94,12.226105,182.6,21 / 32,110052,2021-03-13 18:19:48:574,,,-0.15
0.8993,8.1471,4.8782,1.0472,8.3096,5.1014,-0.1324,0.1005,-0.3712,0.0303,-0.0587,0.0222,22.3776,-5.17,-3.99,24.55,155.74,-57.92,-11.6,2,64.073,13.041683,77.590034,2616.85,NaN,19.94,12.226105,182.6,21 / 32,110552,2021-03-13 18:19:49:074,,,-0.12
2.0629,7.7145,5.8915,1.6609,7.9719,5.4644,0.2494,0.1501,0.036,-0.2273,-0.4569,-0.0034,25.1748,-6.81,-3.39,22.74,146.87,-57.8,-14.16,2,64.974,13.041683,77.590034,2616.85,NaN,19.94,12.226105,182.6,21 / 32,111051,2021-03-13 18:19:49:573,,,-0.12
1.2031,7.9026,5.6874,1.564,8.1863,5.1681,0.1094,-0.1445,1.2403,0.3217,0.152,-0.0238,27.972,-5.23,-4.38,19.25,145.89,-55.34,-18.31,2,65.391,13.041683,77.590034,2616.85,NaN,19.94,12.226105,182.6,21 / 32,111551,2021-03-13 18:19:50:073,,,-0.09
1.7058,7.8988,5.9692,1.5579,8.2437,5.0779,-0.0255,-0.2086,1.3877,0.0266,0.0073,0.0161,25.1748,-1.96,-7.71,20,158.46,-57.96,-17.32,2,63.736,13.041683,77.590034,2616.85,NaN,19.94,12.226105,182.6,21 / 32,112051,2021-03-13 18:19:50:573,,,-0.095
1.373,8.3315,5.5314,1.606,8.3962,4.8057,-0.1168,0.2448,2.3778,-0.3686,0.0384,-0.1018,25.1748,-0.63,-7.75,21.09,160.33,-57.83,-18.08,2,62.729,13.041683,77.590034,2616.85,NaN,19.94,12.226105,182.6,21 / 32,112551,2021-03-13 18:19:51:073,,,-0.05
1.7944,8.0531,3.9051,1.5634,8.2869,5.0054,-0.2357,-0.0902,1.887,0.2343,-0.0492,0.0428,25.1748,-0.32,-6.96,20.93,163.06,-57.74,-17.45,2,63.176,13.041683,77.590034,2616.85,NaN,19.94,12.226105,182.6,21 / 32,113051,2021-03-13 18:19:51:573,,,-0.05
1.3457,7.4973,4.7612,1.5903,8.262,5.0379,0.0134,-0.4621,-0.4309,-0.0345,0.031,-9.00E-04,25.1748,-1.78,-6.95,18.6,157.63,-57.4,-17.52,2,65.362,13.041683,77.590034,2616.85,NaN,19.94,12.226105,182.6,21 / 32,113551,2021-03-13 18:19:52:073,,,-0.01
1.8317,7.9135,4.5231,1.6375,8.2402,5.0585,0.1289,-0.2979,-0.3445,-0.0334,0.0196,-0.0271,25.1748,-1.52,-7.58,19.94,157.85,-57.17,-17.94,2,62.607,13.041683,77.590034,2616.85,NaN,19.94,12.226105,182.6,21 / 32,114051,2021-03-13 18:19:52:573,,,-0.005
1.3751,7.9265,6.0123,1.6065,8.1539,5.2061,-0.1025,0.2461,0.9667,0.1321,-0.066,0.0476,22.3776,-0.8,-7.52,18.43,161.3,-56.25,-17.15,2,61.076,13.041683,77.590034,2616.85,NaN,19.94,12.226105,182.6,21 / 32,114551,2021-03-13 18:19:53:073,,,0.03
1.4524,7.5035,5.7605,1.4472,8.0367,5.4303,0.1674,-0.175,0.4218,0.0202,-0.0603,0.0163,22.3776,-2.06,-10.16,15.03,160.71,-55.39,-15.72,2,62.216,13.041683,77.590034,2616.85,NaN,19.94,12.226105,182.6,21 / 32,115051,2021-03-13 18:19:53:573,,,0.08
0.911,7.894,5.3566,0.9625,8.2114,5.2742,-0.1563,-0.5034,1.3085,-0.0051,0.0872,-0.0718,27.972,-3.94,-13.71,15.69,161.4,-56.86,-10.34,2,63.311,13.041683,77.590034,2616.85,NaN,19.94,12.226105,182.6,21 / 32,115551,2021-03-13 18:19:54:073,,,0.075
0.9185,8.116,4.5389,1.0301,8.3035,5.1149,-0.0094,0.092,-0.5029,-0.2468,-0.2858,-0.0056,25.1748,-1.99,-13.97,20.63,166.03,-57.86,-11.39,2,62.952,13.041683,77.590034,2616.85,NaN,19.94,12.226105,182.6,21 / 32,116051,2021-03-13 18:19:54:573,,,0.145
1.6583,7.8482,4.7588,1.408,8.0634,5.4008,0.1805,-0.1861,-0.3551,-0.195,-0.0326,-0.0144,21.4452,-0.49,-12.47,22.68,167,-55.31,-14.61,2,71.394,13.041683,77.590034,2616.85,NaN,19.94,12.226105,182.6,21 / 32,116551,2021-03-13 18:19:55:073,,,0.155
0.5556,7.894,5.4011,1.0256,8.1579,5.3449,-0.1202,0.0181,0.0338,0.1363,0.381,-0.0037,27.972,-0.78,-11.12,21.11,165.54,-55.82,-13.57,2,72.213,13.041683,77.590034,2616.85,NaN,19.94,12.226105,182.6,21 / 32,117051,2021-03-13 18:19:55:573,,,0.2
1.2636,7.841,5.3542,1.05,8.1088,5.4144,-0.0539,-0.2276,-0.7364,-0.2775,-0.238,-0.0201,25.1748,-4.01,-13.11,22.31,161.7,-55.78,-10.97,2,65.883,13.041683,77.590034,2616.85,NaN,19.94,12.226105,182.6,21 / 32,117551,2021-03-13 18:19:56:073,,,0.2
1.347,8.2073,5.2561,1.2274,7.891,5.6918,0.1771,0.2452,-0.4109,-0.2071,0.0221,-0.0917,25.1748,-1.24,-9.67,23.83,166.24,-53.58,-12.17,2,61.332,13.041683,77.590034,2616.85,NaN,19.94,12.226105,182.6,21 / 32,118051,2021-03-13 18:19:56:573,,,0.24
0.8911,8.1659,5.8878,1.3359,7.9386,5.6004,-0.1047,0.4198,-0.2067,-0.158,-0.0271,-0.0229,25.1748,2.4,-6.71,19.06,172.78,-54.05,-13.42,2,62.004,13.041683,77.590034,2616.85,NaN,19.94,12.226105,182.6,21 / 32,118551,2021-03-13 18:19:57:073,,,0.235
1.8529,7.5127,5.8775,1.8849,7.6212,5.8766,-0.1136,0.1124,0.4256,-0.0781,0.002,-0.0016,25.1748,4.28,-10.47,16.92,176.72,-51.88,-16.98,2,61.151,13.041683,77.590034,2616.85,NaN,19.94,12.226105,182.6,21 / 32,119051,2021-03-13 18:19:57:573,,,0.245
1.8047,7.1474,5.7322,1.9267,7.5047,6.0114,-0.2349,-0.2314,0.3851,-0.1638,-0.0855,-0.0088,25.1748,5.62,-12.25,15.9,182.79,-50.28,-17.16,2,62.675,13.041683,77.590034,2616.85,NaN,19.94,12.226105,182.6,21 / 32,119551,2021-03-13 18:19:58:073,,,0.245
3.3246,6.1176,5.6005,2.0415,7.5304,5.9411,0.2878,1.1522,-2.9647,0.0981,-0.0779,0.0074,22.3776,3.76,-13.42,15.47,176.91,-50.16,-18.96,2,65.095,13.041683,77.590034,2616.85,NaN,19.94,12.226105,182.6,21 / 32,120052,2021-03-13 18:19:58:574,,,0.215
-1.9927,8.9888,2.0271,-1.753,9.4057,2.1516,-0.4075,-0.0749,-0.6717,0.3675,0.679,0.0707,30.7692,-11.7,-4.24,21.82,190.51,-73.56,39.17,2,66.697,13.041683,77.590034,2616.85,NaN,19.94,12.226105,182.6,21 / 32,120551,2021-03-13 18:19:59:073,,,0.18
2.1901,9.1944,5.2397,0.9283,8.8353,4.1529,-0.0624,0.4426,-1.25,-0.3154,-0.1621,0.0654,25.1748,1.08,-5.72,21.9,183,-67.5,0.49,2,62.35,13.041683,77.590034,2616.85,NaN,19.94,12.226105,182.6,21 / 32,121051,2021-03-13 18:19:59:573,,,0.15
-0.2806,8.2473,4.347,0.3008,8.744,4.4297,-0.4229,-0.135,-0.7619,-0.0634,-0.2773,0.0416,25.1748,2.32,-7.7,19.88,181.67,-64.03,-3.92,2,67.614,13.041683,77.590034,2616.85,NaN,19.94,12.226105,182.6,21 / 32,121550,2021-03-13 18:20:00:072,,,0.09
1.478,8.104,3.8442,1.3315,8.5689,4.5795,0.5441,-0.2705,-0.2805,0.0896,-0.0767,0.0771,25.1748,3.16,-9.63,19.95,172.31,-60.38,-17.11,2,62.957,13.041683,77.590034,2616.85,NaN,19.94,12.226105,182.6,21 / 32,122051,2021-03-13 18:20:00:573,,,0.035
0.5895,8.5476,5.4312,1.0153,8.6569,4.4941,-0.1635,-0.2122,-0.4373,-0.012,0.0605,-0.0403,22.3776,2.45,-7.57,19.36,173.78,-61.98,-12.73,2,63.439,13.041683,77.590034,2616.85,NaN,19.94,12.226105,182.6,21 / 32,122551,2021-03-13 18:20:01:073,,,0.025
0.7868,8.3373,3.5881,0.9144,8.6848,4.4619,-0.2126,0.0543,-0.6973,-0.1745,-0.0617,0.0202,22.3776,1.74,-7.62,18.61,175.26,-62.27,-11.13,2,62.853,13.041683,77.590034,2616.85,NaN,19.94,12.226105,182.6,21 / 32,123051,2021-03-13 18:20:01:573,,,0
1.3169,7.6926,4.0176,1.7747,8.2888,4.9312,-0.0976,-0.1802,-0.2689,0.0619,0.0869,-0.0035,22.3776,2.34,-9.28,17.22,168.35,-55.81,-19.83,2,61.593,13.041683,77.590034,2616.85,NaN,19.94,12.226105,182.6,21 / 32,123553,2021-03-13 18:20:02:075,,,-0.015
1.423,8.0459,3.7923,1.6043,8.2753,5.0117,-0.0491,0.0435,-0.7974,-0.1017,0.0535,-0.0305,25.1748,1.57,-9.95,18.12,166.28,-57.72,-18.9,2,63.239,13.041683,77.590034,2616.85,NaN,19.94,12.226105,182.6,21 / 32,124050,2021-03-13 18:20:02:572,,,-0.03
1.5457,8.3551,5.0136,1.5732,8.3197,4.9476,0.0925,0.2935,0.1237,-0.0397,-0.0228,0.0067,22.3776,1.83,-8.3,19.34,169.17,-58.2,-17.63,2,61.059,13.041683,77.590034,2616.85,NaN,19.94,12.226105,182.6,21 / 32,124551,2021-03-13 18:20:03:073,,,0
1.649,8.4019,4.9849,1.575,8.3465,4.9016,-0.0072,-0.1468,-0.7845,-0.1087,0.0035,-0.0137,20.5128,2.8,-7.47,18.26,171.76,-58.32,-18.15,2,64.886,13.041683,77.590034,2616.85,NaN,19.94,12.226105,182.6,21 / 32,125051,2021-03-13 18:20:03:573,,,-0.02
1.2485,8.077,5.3173,1.4784,8.3307,4.9583,0.0336,-0.065,-0.5755,-0.0868,-0.0162,-0.0147,25.1748,5.45,-11.02,16.24,180.43,-58.12,-16.83,2,62.689,13.041683,77.590034,2616.85,NaN,19.94,12.226105,182.6,21 / 32,125551,2021-03-13 18:20:04:073,,,-0.005
0.3142,9.2747,2.3739,-0.1661,9.2221,3.3309,-0.6684,-0.3421,-0.1071,0.2029,0.4923,-0.1192,21.4452,4.03,-8.16,22.83,192.02,-70.12,2.85,2,68.778,13.041683,77.590034,2616.85,NaN,19.94,12.226105,182.6,21 / 32,126050,2021-03-13 18:20:04:572,,,-0.025
-0.3429,8.6355,4.5071,-0.0437,8.9347,4.0421,-0.6718,-0.2878,1.2188,-0.4958,-0.2581,0.0069,25.1748,5.97,-9.42,23.11,195.2,-66.67,1.65,2,62.489,13.041683,77.590034,2616.85,NaN,19.94,12.226105,182.6,21 / 32,126550,2021-03-13 18:20:05:072,,,-0.03
-0.3285,8.8701,4.1852,-0.2684,8.9119,4.0836,-0.1159,0.204,-0.2312,0.0397,0.2175,-0.0749,21.4452,3.53,-8.7,24.19,192.41,-65.34,3.76,2,69.939,13.041683,77.590034,2616.85,NaN,19.94,12.226105,182.6,21 / 32,127051,2021-03-13 18:20:05:573,,,-0.015
-1.3785,8.2521,4.8946,-0.5589,8.8309,4.2277,-0.4425,0.7387,-0.8439,-0.3454,-0.3683,0.1683,27.972,-0.52,-6.74,24.39,185.01,-64.22,7.53,2,65.202,13.041683,77.590034,2616.85,NaN,19.94,12.226105,182.6,21 / 32,127551,2021-03-13 18:20:06:073,,,-0.01
0.9469,8.8329,4.2081,1.033,8.6311,4.5395,-0.2304,0.3869,1.0474,0.1262,0.0753,-0.0099,25.1748,4.71,-8.39,24.15,178.98,-61.66,-12.82,2,64.032,13.041683,77.590034,2616.85,NaN,19.94,12.226105,182.6,21 / 32,128051,2021-03-13 18:20:06:573,,,-0.035
0.2967,8.1235,4.0084,0.5195,8.8102,4.2756,-0.2637,-0.3578,-0.9314,-0.2536,-0.1887,0.0365,22.3776,2.61,-5.23,26.02,179.65,-63.95,-6.93,2,64.165,13.041683,77.590034,2616.85,NaN,19.94,12.226105,182.6,21 / 32,128551,2021-03-13 18:20:07:073,,,-0.04
0.452,8.1981,4.6446,0.7977,8.5847,4.6729,-0.307,-0.1873,0.0917,-0.037,0.0126,0.0013,22.3776,3.55,-6.05,22.51,180.46,-60.97,-9.41,2,61.367,13.041683,77.590034,2616.85,NaN,19.94,12.226105,182.6,21 / 32,129051,2021-03-13 18:20:07:573,,,-0.05
0.8617,8.4139,5.2834,0.9659,8.4503,4.8816,-0.181,0.2823,-0.3387,-0.3,-0.3822,0.1591,22.3776,3.94,-7.35,22.6,178.69,-59.51,-11.19,2,63.378,13.041683,77.590034,2616.85,NaN,19.94,12.226105,182.6,21 / 32,129551,2021-03-13 18:20:08:073,,,-0.045
1.9114,7.3188,5.2834,1.7653,8.0804,5.2688,0.0569,-0.3403,1.1813,0.1469,0.0468,0.0785,22.3776,4.42,-8.21,21.75,172.01,-55.48,-18.52,2,63.17,13.041683,77.590034,2616.85,NaN,19.94,12.226105,182.6,21 / 32,130053,2021-03-13 18:20:08:575,,,-0.04
1.5841,7.1895,5.7038,1.9157,7.9182,5.4592,-0.2554,-0.0584,0.985,0.0402,0.1525,-0.003,22.3776,4.31,-8.56,23.08,170.87,-53.85,-19.34,2,62.372,13.041683,77.590034,2616.85,NaN,19.94,12.226105,182.6,21 / 32,130551,2021-03-13 18:20:09:073,,,-0.075
2.0027,7.2292,5.2092,2.0713,7.663,5.7583,0.2617,-0.1594,-0.6392,-0.3908,0.1895,-0.0129,25.1748,4.42,-7.33,23.55,168.29,-53.17,-20.9,2,64.973,13.041683,77.590034,2616.85,NaN,19.94,12.226105,182.6,21 / 32,131050,2021-03-13 18:20:09:572,,,-0.065
1.6846,7.4963,5.044,1.5115,7.4141,6.2384,0.1206,0.2588,-1.3654,0.115,0.2586,0.0415,22.3776,2.11,-6.77,22.17,168.98,-51.55,-16.04,2,60.805,13.041683,77.590034,2616.85,NaN,19.94,12.226105,182.6,21 / 32,131551,2021-03-13 18:20:10:073,,,-0.095
1.504,6.4035,8.2083,1.7805,7.1697,6.4495,0.3623,1.046,-0.5941,-0.4387,-0.1209,-0.2088,25.1748,-0.29,-6.15,19.09,163.87,-46.98,-15.43,2,63.78,13.041683,77.590034,2616.85,NaN,19.94,12.226105,182.6,21 / 32,132050,2021-03-13 18:20:10:572,,,-0.085
1.2037,6.9891,6.9172,1.7741,7.0582,6.573,0.5585,-0.2998,0.122,-0.2021,0.5352,0.3232,22.3776,-3.09,-10.98,19.05,158.84,-46.03,-15.1,2,65.076,13.041683,77.590034,2616.85,NaN,19.94,12.226105,182.6,21 / 32,132551,2021-03-13 18:20:11:073,,,-0.085
2.0215,6.6282,5.9028,1.7446,7.1375,6.4949,-0.0953,-0.4807,0.1038,0.0591,0.0345,0.1523,18.648,-1.75,-9.93,21.22,161.19,-45.75,-14.55,2,65.183,13.041683,77.590034,2616.85,NaN,19.94,12.226105,182.6,21 / 32,133051,2021-03-13 18:20:11:573,,,-0.09
1.2349,6.3539,6.1426,1.654,6.9548,6.7131,-0.2224,-0.3033,-0.4053,-0.0513,-0.1216,-0.0307,19.5804,-2.11,-9.11,21.01,161.73,-45.2,-13.28,2,63.993,13.041683,77.590034,2616.85,NaN,19.94,12.226105,182.6,21 / 32,133551,2021-03-13 18:20:12:073,,,-0.1
1.2027,7.1498,5.7147,1.5665,6.7125,6.9756,-0.3313,0.5633,-0.613,-0.1233,-0.0511,0.1146,22.3776,-0.83,-3.89,23.42,164,-45.4,-11.02,2,62.645,13.041683,77.590034,2616.85,NaN,19.94,12.226105,182.6,21 / 32,134051,2021-03-13 18:20:12:573,,,-0.1
2.3156,7.224,6.4583,2.224,6.9833,6.5159,0.1983,0.5868,-0.0407,0.0529,-0.047,0.0671,22.3776,-2.93,4.85,26.51,140.44,-45.41,-18.85,2,65.281,13.041683,77.590034,2616.85,NaN,19.94,12.226105,182.6,21 / 32,134550,2021-03-13 18:20:13:072,,,-0.08
2.3909,7.0913,5.9955,2.2573,7.2726,6.1794,-0.0957,0.0142,0.649,0.0827,-0.0773,0.0907,22.3776,-4.13,8.68,30.13,135.95,-47.62,-18.87,2,64.476,13.041683,77.590034,2616.85,NaN,19.94,12.226105,182.6,21 / 32,135050,2021-03-13 18:20:13:572,,,-0.105
2.9292,7.302,5.2698,2.8912,7.3631,5.7962,-0.0961,0.1607,0.2501,0.0904,-0.0115,0.0224,15.8508,1.91,17.2,35.15,133.89,-48.87,-26.2,2,63.534,13.041683,77.590034,2616.85,NaN,19.94,12.226105,182.6,21 / 32,135551,2021-03-13 18:20:14:073,,,-0.105
2.3584,7.0523,5.698,1.2602,7.0215,6.7291,0.8317,-0.0582,-0.8533,-0.2714,0.509,-0.6178,19.5804,0.84,-0.47,27.23,156,-47.58,-20.32,2,63.269,13.041683,77.590034,2616.85,NaN,19.94,12.226105,182.6,21 / 32,136051,2021-03-13 18:20:14:573,,,-0.1
0.0125,6.0448,6.3488,0.806,6.6451,7.1668,-0.8294,-0.8435,0.9359,0.2333,-0.047,0.3117,19.5804,-2.78,-7.6,19.95,164.74,-42.66,-6.42,2,63.765,13.041683,77.590034,2616.85,NaN,19.94,12.226105,182.6,21 / 32,136551,2021-03-13 18:20:15:073,,,-0.105
2.4757,7.0127,7.209,1.8233,6.6081,7.0128,-0.7639,-0.0798,-0.3985,-0.1213,0.1676,0.166,15.8508,-3.43,-7.46,20.95,157.82,-43.99,-13.02,2,65.688,13.041683,77.590034,2616.85,NaN,19.94,12.226105,182.6,21 / 32,137051,2021-03-13 18:20:15:573,,,-0.095
1.3446,6.3067,7.5763,1.9986,6.6107,6.9623,-0.7191,0.3048,0.1528,-0.0911,-0.0261,0.0541,18.648,-4.82,-8.31,20.05,150.81,-42.89,-15.32,2,64.127,13.041683,77.590034,2616.85,NaN,19.94,12.226105,182.6,21 / 32,137551,2021-03-13 18:20:16:073,,,-0.1
2.121,6.2028,7.8345,2.2206,6.8716,6.6348,-0.1705,-0.7652,1.5679,0.0982,0.1034,-0.0044,19.5804,-1.39,-6.76,21.97,158,-43.84,-18.15,2,68.445,13.041683,77.590034,2616.85,NaN,19.94,12.226105,182.6,21 / 32,138051,2021-03-13 18:20:16:573,,,-0.09
1.5861,5.6511,7.1132,2.0761,6.8996,6.6525,-0.3412,-1.0863,0.4975,0.0484,-0.0753,0.0164,22.3776,-1.78,-5.21,21.52,154.38,-44.39,-17.56,2,67.453,13.041683,77.590034,2616.85,NaN,19.94,12.226105,182.6,21 / 32,138551,2021-03-13 18:20:17:073,,,-0.035
3.1549,7.2757,5.648,2.7535,7.3727,5.8509,0.1418,-0.5305,1.0342,0.1416,0.1256,0.1005,22.3776,-0.93,3.71,24.65,140.15,-47.15,-24.73,2,62.979,13.041683,77.590034,2616.85,NaN,19.94,12.226105,182.6,21 / 32,139051,2021-03-13 18:20:17:573,,,0.01
1.2308,5.8546,6.87,2.1236,6.9481,6.5867,-0.0134,-0.3571,1.2036,0.1328,-0.0672,-0.0437,18.648,-2.65,-1.62,22.97,148.64,-45.11,-17.87,2,63.691,13.041683,77.590034,2616.85,NaN,19.94,12.226105,182.6,21 / 32,139551,2021-03-13 18:20:18:073,,,0.035
2.1347,7.5797,6.0324,2.135,7.2636,6.2331,-0.1584,0.1376,-1.1522,-0.1249,0.0604,-0.0104,18.648,-2.88,2.31,24.29,144.27,-47.79,-18.91,2,69.907,13.041683,77.590034,2616.85,NaN,19.94,12.226105,182.6,21 / 32,140051,2021-03-13 18:20:18:573,,,0.07
1.8505,7.2616,5.937,2.0378,7.3812,6.1266,-0.1574,0.1333,-0.3617,-0.0562,0.1626,-0.0466,18.648,-3.37,2.02,23.53,145.41,-48.82,-18.4,2,64.073,13.041683,77.590034,2616.85,NaN,19.94,12.226105,182.6,21 / 32,140550,2021-03-13 18:20:19:072,,,0.19
1.4165,7.2565,6.0677,1.7249,7.2877,6.3312,-0.204,0.1608,-0.1011,0.0071,0.0421,0.0241,25.1748,-3.67,-1.96,23.58,150.2,-48.13,-15.29,2,63.103,13.041683,77.590034,2616.85,NaN,19.94,12.226105,182.6,21 / 32,141051,2021-03-13 18:20:19:573,,,0.125
2.0434,7.0869,6.5807,1.9656,7.177,6.3873,-0.0383,0.0218,0.7641,0.0051,0.0442,0.0086,22.3776,-3.28,-1.95,24.45,150.44,-47.04,-17.1,2,63.378,13.041683,77.590034,2616.85,NaN,19.94,12.226105,182.6,21 / 32,141551,2021-03-13 18:20:20:073,,,0.045
1.9018,7.5421,4.4476,1.6292,7.4427,6.1744,0.0114,0.2458,-0.099,0.1485,0.0476,-0.0022,22.3776,-2.83,0.04,24.47,152.08,-49.37,-14.78,2,61.121,13.041683,77.590034,2616.85,NaN,19.94,12.226105,182.6,21 / 32,142051,2021-03-13 18:20:20:573,,,-0.035
1.7787,7.6645,5.1436,1.6337,7.4766,6.1321,-0.2936,0.3687,-0.0972,0.1058,-0.0344,-0.0276,25.1748,-4.85,-0.39,23.13,146.04,-49.68,-14.92,2,64.714,13.041683,77.590034,2616.85,NaN,19.94,12.226105,182.6,21 / 32,142551,2021-03-13 18:20:21:073,,,-0.06
1.6535,7.958,5.1996,1.6891,7.5401,6.0386,-0.0469,0.595,-0.5355,-0.0762,0.0107,-8.00E-04,21.4452,-4.1,0.24,23.49,148.6,-50.55,-15.37,2,60.624,13.041683,77.590034,2616.85,NaN,19.94,12.226105,182.6,21 / 32,143050,2021-03-13 18:20:21:572,,,-0.155
1.5909,7.8882,6.226,1.7627,7.7022,5.8086,0.0261,0.3194,-0.7666,-0.0832,-0.0504,0.0259,22.3776,-4.76,-1.35,23.06,145.64,-51.76,-16.88,2,63.454,13.041683,77.590034,2616.85,NaN,19.94,12.226105,182.6,21 / 32,143550,2021-03-13 18:20:22:072,,,-0.21
1.7722,7.4624,5.4031,1.7804,7.7506,5.7384,0.0056,0.0977,0.0354,-0.0024,0.0098,-0.0099,19.5804,-3.88,-0.94,23.25,148.03,-52.22,-17.24,2,63.133,13.041683,77.590034,2616.85,NaN,19.94,12.226105,182.6,21 / 32,144051,2021-03-13 18:20:22:573,,,-0.225
1.8713,7.878,5.2893,1.7624,7.8173,5.6527,0.0884,0.1267,-0.1372,0.0085,-0.0115,-7.00E-04,25.1748,-3.66,-0.22,24.35,147.66,-52.86,-17.32,2,67.74,13.041683,77.590034,2616.85,NaN,19.94,12.226105,182.6,21 / 32,144551,2021-03-13 18:20:23:073,,,-0.2
1.7954,7.5,6.4603,1.9025,7.7743,5.6667,0.1352,-0.0376,-0.2298,-0.1939,-0.1046,0.019,22.3776,-3.89,-0.36,23.96,146.73,-53,-18.19,2,67.191,13.041683,77.590034,2616.85,NaN,19.94,12.226105,182.6,21 / 32,145050,2021-03-13 18:20:23:572,,,-0.215
3.5759,7.7333,5.1733,3.3336,8.0013,4.5866,0.3315,-0.137,0.9986,0.2554,-0.9044,0.1264,19.5804,3.76,1.69,27.44,148.82,-55.33,-33.59,2,66.78,13.041683,77.590034,2616.85,NaN,19.94,12.226105,182.6,21 / 32,145551,2021-03-13 18:20:24:073,,,-0.265
1.5023,7.1755,4.0977,2.0829,7.5234,5.9355,0.684,-0.3008,1.0985,0.2911,0.6527,-0.2239,19.5804,-0.23,-3.86,24.67,158.17,-50.1,-19.34,2,64.881,13.041683,77.590034,2616.85,NaN,19.94,12.226105,182.6,21 / 32,146051,2021-03-13 18:20:24:573,,,0.07
1.3563,7.6392,4.53,1.2826,7.7963,5.8088,-0.48,-0.6401,-0.9371,0.2098,-0.2207,0.0601,17.7156,-3.48,-3.3,23.76,157.88,-52.66,-12.45,2,66.036,13.041683,77.590034,2616.85,NaN,19.94,12.226105,182.6,21 / 32,146551,2021-03-13 18:20:25:073,,,0.865
1.5413,7.1796,6.1405,1.5453,7.5569,6.056,-0.1064,0.2371,-0.9713,-0.2134,-0.0709,-0.0331,22.3776,-2.26,-3.61,21.77,159.02,-51.96,-13.96,2,67.335,13.041683,77.590034,2616.85,NaN,19.94,12.226105,182.6,21 / 32,147051,2021-03-13 18:20:25:573,,,1.495
1.3929,7.394,4.2013,1.4892,7.612,6.0008,-0.1551,0.0523,-1.6849,0.0775,-0.0367,-0.0218,19.5804,-3.07,-4.46,20.76,155.17,-50.49,-14.51,2,68.551,13.041683,77.590034,2616.85,NaN,19.94,12.226105,182.6,21 / 32,147551,2021-03-13 18:20:26:073,,,0.625
2.1097,7.5955,5.3491,1.0188,7.6872,6.0033,0.2487,-0.2557,-0.4375,0.3143,-0.9953,-0.6494,19.5804,1.39,-8.45,20.14,172.3,-50.68,-10.78,2,65.307,13.041683,77.590034,2616.85,NaN,19.94,12.226105,182.6,21 / 32,148051,2021-03-13 18:20:26:573,,,-0.44
0.5987,7.984,4.3956,0.7411,8.016,5.6004,-0.2046,0.6421,-0.8533,-0.1182,0.101,-0.0835,16.7832,4.02,-9.56,20.39,183.43,-54.83,-7.54,2,66.23,13.041683,77.590034,2616.85,NaN,19.94,12.226105,182.6,21 / 32,148551,2021-03-13 18:20:27:073,,,-0.815
1.3552,7.1878,6.1125,0.8592,7.7512,5.9456,-0.2111,-0.773,0.6962,0.1651,-0.1163,0.2475,16.7832,3.59,-9.82,20.29,184.22,-50.62,-6.73,2,67.07,13.041683,77.590034,2616.85,NaN,19.94,12.226105,182.6,21 / 32,149051,2021-03-13 18:20:27:573,,,-0.6
0.6394,7.433,6.1156,0.6962,7.8416,5.8476,0.4625,-0.2695,0.5899,-0.2035,0.0267,-0.1858,19.5804,2.16,-9.53,20.59,178.76,-53.09,-6.79,2,64.129,13.041683,77.590034,2616.85,NaN,19.94,12.226105,182.6,21 / 32,149550,2021-03-13 18:20:28:072,,,-0.31
0.3856,7.13,6.895,0.6559,7.6077,6.1533,-0.1768,-0.3464,0.1567,0.0603,-0.1621,0.0423,16.7832,2.51,-10.23,21.04,183.31,-51.32,-4.57,2,0,13.041683,77.590034,2616.85,NaN,19.94,12.226105,182.6,21 / 32,150051,2021-03-13 18:20:28:573,,,-0.175
0.9301,6.7801,5.7698,0.6021,7.7282,6.0069,0.7538,-0.061,0.9158,0.0398,-0.0332,0.0385,16.7832,2.09,-8.82,20.09,179.23,-51.39,-6.52,2,0,13.041683,77.590034,2616.85,NaN,19.94,12.226105,182.6,21 / 32,150551,2021-03-13 18:20:29:073,,,-0.18
0.4835,7.5435,7.1248,0.5307,7.6472,6.1163,-0.0142,0.0353,0.8037,0.1169,0.1288,-0.0101,10.2564,3.12,-8.41,20.78,183.12,-51.24,-4.96,2,0,13.041683,77.590034,2616.85,NaN,19.94,12.226105,182.6,21 / 32,151051,2021-03-13 18:20:29:573,,,-0.165
1.0813,7.157,4.3467,1.1036,7.6344,6.0554,1.4858,0.806,-2.0061,-0.126,0.1043,-0.1375,16.7832,2.99,-4.1,19.91,178.01,-51.12,-10.33,2,0,13.041683,77.590034,2616.85,NaN,19.94,12.226105,182.6,21 / 32,151551,2021-03-13 18:20:30:073,,,-0.135
0.3795,7.616,6.6638,0.891,7.4784,6.2809,-1.0691,-0.597,0.437,0.181,-0.3021,0.3911,13.986,1.54,-11.22,20.32,180.87,-49.38,-4.74,2,0,13.041683,77.590034,2616.85,NaN,19.94,12.226105,182.6,21 / 32,152050,2021-03-13 18:20:30:572,,,-0.135
0.9223,7.0304,7.2565,0.8751,7.464,6.3003,-0.8275,-0.3548,0.1532,-0.022,0.0638,-0.3307,13.0536,2.24,-12.77,19.91,177.24,-49.99,-8.98,2,0,13.041683,77.590034,2616.85,NaN,19.94,12.226105,182.6,21 / 32,152551,2021-03-13 18:20:31:073,,,-0.115
0.1934,6.4603,3.0634,1.0844,7.5574,6.1547,0.3819,0.4058,0.9925,0.0392,0.1518,-0.0902,16.7832,2.31,-12.02,20.24,176.28,-50.41,-9.99,2,0,13.041683,77.590034,2616.85,NaN,19.94,12.226105,182.6,21 / 32,153050,2021-03-13 18:20:31:572,,,-0.105
1.0433,8.274,5.6532,1.1222,7.6348,6.0515,-0.275,0.063,-1.2583,-0.1987,-0.0247,-0.0476,16.7832,3.53,-12.21,21.72,179.82,-51.13,-10.51,2,0,13.041683,77.590034,2616.85,NaN,19.94,12.226105,182.6,21 / 32,153551,2021-03-13 18:20:32:073,,,-0.085
1.3498,7.658,5.1179,1.3576,7.7333,5.8757,-0.5882,-0.5286,-0.0324,-0.0977,-0.2607,0.1831,16.7832,3.64,-10.98,20.77,180.36,-51.71,-10.39,2,0,13.041683,77.590034,2616.85,NaN,19.94,12.226105,182.6,21 / 32,154051,2021-03-13 18:20:32:573,,,-0.06
0.3754,7.1864,3.9954,1.6006,7.6636,5.9058,0.253,-0.7151,0.1485,-0.1726,-0.435,0.4235,16.7832,2.58,-11.06,20.77,177.66,-51.33,-10.72,2,0,13.041683,77.590034,2616.85,NaN,19.94,12.226105,182.6,21 / 32,154550,2021-03-13 18:20:33:072,,,-0.03
2.3474,8.2586,5.3908,1.3614,7.7502,5.8524,0.5445,0.5479,-0.0198,-0.0493,-0.2784,0.3588,19.5804,4.07,-11.09,20.8,179.24,-51.44,-11.62,2,0,13.041683,77.590034,2616.85,NaN,19.94,12.226105,182.6,21 / 32,155051,2021-03-13 18:20:33:573,,,-0.02
0.8498,7.7911,5.3447,1.3317,7.5966,6.0571,0.5576,0.3196,1.2913,-0.2973,-0.0364,-0.0515,16.7832,4.25,-11.82,20.65,178.57,-50.77,-12.4,2,0,13.041683,77.590034,2616.85,NaN,19.94,12.226105,182.6,21 / 32,155550,2021-03-13 18:20:34:072,,,0.015
0.8853,6.8943,6.7445,1.1822,7.6064,6.0759,0.1896,0.8166,0.6479,0.0268,0.0129,-0.0647,16.7832,3.15,-11.32,19.84,176.2,-51.21,-12.79,2,0,13.041683,77.590034,2616.85,NaN,19.94,12.226105,182.6,21 / 32,156051,2021-03-13 18:20:34:573,,,0.05
1.1993,7.1231,5.8943,1.4768,7.6355,5.974,-1.0528,-0.4725,0.9071,0.246,-0.1785,0.3595,19.5804,2.63,-12.04,18.63,178.68,-50.53,-10.52,2,0,13.041683,77.590034,2616.85,NaN,19.94,12.226105,182.6,21 / 32,156551,2021-03-13 18:20:35:073,,,0.07
1.8806,7.868,4.4995,1.9747,7.7519,5.6727,-0.9638,-1.428,-1.9681,-0.0126,-0.3189,0.3061,16.7832,2.48,-11.06,19.86,172.26,-51.56,-14.43,2,0,13.041683,77.590034,2616.85,NaN,19.94,12.226105,182.6,21 / 32,157050,2021-03-13 18:20:35:572,,,0.105
-0.1701,6.2842,5.5625,1.4014,7.6381,5.9888,-0.968,-0.6085,-0.9386,-0.091,0.2316,-0.3279,19.5804,2.33,-11.18,20.89,170.35,-51.62,-16.16,2,0,13.041683,77.590034,2616.85,NaN,19.94,12.226105,182.6,21 / 32,157551,2021-03-13 18:20:36:073,,,0.165
2.4641,7.9987,6.7025,1.7043,7.7458,5.7679,-0.4588,-0.0425,-0.7108,0.1022,0.0686,-0.0448,16.7832,2.93,-11.19,21.2,174.89,-51.97,-13.79,2,0,13.041683,77.590034,2616.85,NaN,19.94,12.226105,182.6,21 / 32,158051,2021-03-13 18:20:36:573,,,0.2
1.4264,8.564,5.871,1.6037,7.8634,5.6362,-0.2014,0.3949,0.7868,0.0226,0.09,0.2604,11.1888,6.13,-8.05,16.52,184.73,-53.12,-14.4,2,0,13.041683,77.590034,2616.85,NaN,19.94,12.226105,182.6,21 / 32,158550,2021-03-13 18:20:37:072,,,0.205
2.0023,7.5397,5.9753,1.6724,7.7963,5.7088,1.3946,1.2541,-1.0515,-0.1546,-0.1115,-0.4833,13.986,15.18,32.95,36.55,199.05,-52.66,-16.33,2,0,13.041683,77.590034,2616.85,NaN,19.94,12.226105,182.6,21 / 32,159051,2021-03-13 18:20:37:573,,,0.235
1.2824,7.08,5.7852,1.3368,7.3135,6.395,-0.2375,-0.1603,0.5311,0.2497,-0.4091,-0.0908,13.986,-1.74,-6.27,20.9,161.8,-48.22,-11.81,2,0,13.041683,77.590034,2616.85,NaN,19.94,12.226105,182.6,21 / 32,159551,2021-03-13 18:20:38:073,,,0.235
1.2119,7.6119,5.6114,1.1735,7.7747,5.8607,0.0152,-0.0349,0.6975,-0.4978,0.0978,-0.0183,13.986,-1.36,-4.45,22.06,164.84,-53.06,-11.27,2,0,13.041683,77.590034,2616.85,NaN,19.94,12.226105,182.6,21 / 32,160050,2021-03-13 18:20:38:572,,,0.265
1.4866,7.6779,4.5553,0.9511,7.8194,5.8415,0.8594,0.0287,-0.8323,-0.201,-0.3466,-0.2587,16.7832,0.83,-3.8,23.72,172.37,-52.88,-9.25,2,0,13.041683,77.590034,2616.85,NaN,19.94,12.226105,182.6,21 / 32,160551,2021-03-13 18:20:39:073,,,0.26
0.4636,7.1956,6.659,1.0662,7.634,6.0627,-0.5966,0.5229,-0.0377,0.0174,-0.0783,0.2819,16.7832,-0.82,-6.46,21.43,166.82,-51.12,-9.97,2,0,13.041683,77.590034,2616.85,NaN,19.94,12.226105,182.6,21 / 32,161051,2021-03-13 18:20:39:573,,,0.235
1.7212,7.5979,4.6182,1.673,7.7949,5.7106,0.3524,0.4769,1.0889,0.2039,-0.0643,0.0384,16.7832,-5.15,-1.96,24.37,147.9,-52.64,-16.33,2,0,13.041683,77.590034,2616.85,NaN,19.94,12.226105,182.6,21 / 32,161551,2021-03-13 18:20:40:073,,,0.215
1.41,7.4412,4.687,1.7069,7.9204,5.5249,-0.3225,-0.357,-0.1656,0.0797,-0.0197,2.00E-04,13.986,-5.25,-1.88,24.34,146.73,-52.55,-17.4,2,0,13.041683,77.590034,2616.85,NaN,19.94,12.226105,182.6,21 / 32,162051,2021-03-13 18:20:40:573,,,0.17
1.9274,8.1352,5.0604,1.8504,7.9166,5.484,0.3144,0.1481,-0.3565,-0.152,0.1165,0.0488,16.7832,-3.62,-1.24,24.21,147.13,-54.09,-18.95,2,0,13.041683,77.590034,2616.85,NaN,19.94,12.226105,182.6,21 / 32,162550,2021-03-13 18:20:41:072,,,0.125
1.6388,7.4467,5.8112,1.792,7.8726,5.566,-0.254,0.0554,1.0348,0.2131,0.0086,0.0128,13.986,-4.58,-1.66,23.06,146.25,-53.08,-17.57,2,0,13.041683,77.590034,2616.85,NaN,19.94,12.226105,182.6,21 / 32,163051,2021-03-13 18:20:41:573,,,0.09
1.2886,7.945,4.5163,1.5251,7.9464,5.5406,0.0695,0.1226,-1.089,0.1686,0.0831,-0.0157,13.986,-6.67,-1.41,23.74,142.55,-53.88,-16.37,2,0,13.041683,77.590034,2616.85,NaN,19.94,12.226105,182.6,21 / 32,163551,2021-03-13 18:20:42:073,,,0.025
1.2708,7.487,4.9968,1.6378,7.8802,5.6027,-0.2809,-0.2944,0.3422,0.0902,0.0664,0.0339,10.2564,-5.85,-1.53,23.25,145.5,-52.78,-15.83,2,0,13.041683,77.590034,2616.85,NaN,19.94,12.226105,182.6,21 / 32,164051,2021-03-13 18:20:42:573,,,-0.015
1.504,8.1098,3.8186,1.0558,8.9479,3.8717,0.6673,-0.8802,0.78,0.8369,0.5405,-0.1311,13.986,-7.52,0.81,25.51,138.9,-57.45,-18.43,2,0,13.041683,77.590034,2616.85,NaN,19.94,12.226105,182.6,21 / 32,164551,2021-03-13 18:20:43:073,,,-0.03
2.0854,7.5513,5.2602,1.2249,8.0287,5.4964,-0.4833,0.1141,-0.0736,-0.5161,-0.3519,-0.099,16.7832,-6.1,-1.41,21.38,146.6,-58.95,-11.7,2,0,13.041683,77.590034,2616.85,NaN,19.94,12.226105,182.6,21 / 32,165051,2021-03-13 18:20:43:573,,,-0.035
1.1897,6.8396,7.6584,1.1861,7.0506,6.7121,0.0546,0.0295,0.457,-0.3081,0.0707,-0.1981,13.0536,-3.79,-3.26,17.74,151.9,-46.71,-11.89,2,0,13.041683,77.590034,2616.85,NaN,19.94,12.226105,182.6,21 / 32,165550,2021-03-13 18:20:44:072,,,-0.04
0.6336,7.2435,4.8874,1.087,7.6168,6.0806,-0.3831,-0.6579,-0.02,0.1268,0.1438,0.0073,15.8508,-5.54,-4.42,20.37,150.98,-50.96,-10.14,2,0,13.041683,77.590034,2616.85,NaN,19.94,12.226105,182.6,21 / 32,166051,2021-03-13 18:20:44:573,,,-0.04
1.5345,7.6892,6.1665,1.3678,7.6556,5.9742,0.1166,0.4906,0.4691,-0.0061,-0.0285,0.0425,19.5804,-6.24,-4.16,22.49,149.41,-51.32,-12.9,2,0,13.041683,77.590034,2616.85,NaN,19.94,12.226105,182.6,21 / 32,166551,2021-03-13 18:20:45:073,,,-0.035
1.6364,7.615,5.1566,1.4653,7.8844,5.6444,0.1899,-0.002,1.7692,0.3791,0.0658,-0.0381,16.7832,-5.77,-2.33,22.88,147.88,-52.09,-13.39,2,65.02,13.041683,77.590034,2616.85,NaN,19.94,12.226105,182.6,21 / 32,167051,2021-03-13 18:20:45:573,,,-0.04
1.6894,7.4132,5.4216,1.8702,7.882,5.5269,-0.1565,-0.384,0.4728,0.3007,0.0273,-0.0617,16.7832,-4.13,-1.48,23.51,148.48,-53.4,-17.53,2,65.956,13.041683,77.590034,2616.85,NaN,19.94,12.226105,182.6,21 / 32,167551,2021-03-13 18:20:46:073,,,-0.02
1.6993,8.2477,6.0256,1.676,8.141,5.2044,0.0138,0.2426,0.992,-0.1949,-0.0616,0.0279,19.5804,-4.79,-0.94,24,146.96,-55.88,-17.28,2,65.526,13.041683,77.590034,2616.85,NaN,19.94,12.226105,182.6,21 / 32,168052,2021-03-13 18:20:46:574,,,-0.04
1.6986,7.8951,5.3252,1.6889,8.2267,5.0635,0.2599,0.1327,-0.3744,0.0071,-0.0165,0.0235,19.5804,-5.57,0.57,23.76,141.93,-57.02,-18.45,2,64.462,13.041683,77.590034,2616.85,NaN,19.94,12.226105,182.6,21 / 32,168551,2021-03-13 18:20:47:073,,,-0.04
2.0013,7.7278,5.1812,1.8334,8.2484,4.9772,-0.0045,0.7155,0.8862,0.1246,-0.099,0.0244,14.9184,-4.69,-0.05,25.58,144.34,-57.26,-20.22,2,65.584,13.041683,77.590034,2616.85,NaN,19.94,12.226105,182.6,21 / 32,169051,2021-03-13 18:20:47:573,,,-0.03
2.1528,8.6465,5.6316,2.0294,8.3828,4.667,0.1824,-0.3929,-0.8405,-0.0482,-0.1259,-0.0352,19.5804,-4.37,2.04,27.49,142.43,-58.74,-23.5,2,66.206,13.041683,77.590034,2616.85,NaN,19.94,12.226105,182.6,21 / 32,169551,2021-03-13 18:20:48:073,,,-0.045
1.8471,8.0828,4.9801,1.979,8.3971,4.6629,-0.0947,0.1072,-0.2581,-0.0429,0.0441,0.0226,22.3776,-3.51,2.33,23.75,141.72,-58.9,-23,2,67.303,13.041683,77.590034,2616.85,NaN,19.94,12.226105,182.6,21 / 32,170050,2021-03-13 18:20:48:572,,,-0.065
2.0779,8.2135,4.2516,2.0362,8.517,4.4142,0.0686,0.0014,-0.7321,0.0682,-0.0227,-0.0011,16.7832,-3.38,0.46,26.08,144.96,-60.28,-24.76,2,64.871,13.041683,77.590034,2616.85,NaN,19.94,12.226105,182.6,21 / 32,170551,2021-03-13 18:20:49:073,,,-0.06
4.2056,6.4442,8.0414,3.7924,7.1114,5.5872,0.6099,-0.0483,0.2407,0.1103,0.1824,-0.0506,12.1212,2.32,-4.92,22.93,150.78,-50.21,-32.31,2,67.279,13.041683,77.590034,2616.85,NaN,19.94,12.226105,182.6,21 / 32,171051,2021-03-13 18:20:49:573,,,-0.06
4.8175,9.0617,3.7799,3.0844,7.8551,4.9955,0.7372,0.2116,-0.9656,0.1875,-0.0395,-0.0753,16.7832,1.76,-1.57,23.64,144.07,-51.79,-36.28,2,70.739,13.041683,77.590034,2616.85,NaN,19.94,12.226105,182.6,21 / 32,171550,2021-03-13 18:20:50:072,,,-0.09
1.3717,6.4648,7.1341,1.8113,7.1326,6.4819,0.5696,0.4438,0.4429,-0.1983,-0.2986,-0.1957,13.986,3.84,-14.26,19.49,176.95,-46.66,-15.61,2,68.188,13.041683,77.590034,2616.85,NaN,19.94,12.226105,182.6,21 / 32,172051,2021-03-13 18:20:50:573,,,-0.08
1.6148,6.7756,5.8077,2.5169,7.2912,6.056,-0.4035,-0.27,-0.2517,-0.1394,-0.0388,0.1579,13.986,4.49,-13.52,19.02,171.31,-48.03,-22.57,2,68.649,13.041683,77.590034,2616.85,NaN,19.94,12.226105,182.6,21 / 32,172550,2021-03-13 18:20:51:072,,,-0.095
2.502,6.594,5.8354,2.6356,7.3399,5.9456,-0.0078,-0.1835,0.4076,0.1912,-0.0254,0.019,11.1888,4.47,-12.52,18.93,170.68,-47.86,-23.02,2,64.951,13.041683,77.590034,2616.85,NaN,19.94,12.226105,182.6,21 / 32,173051,2021-03-13 18:20:51:573,,,-0.085
3.0096,7.025,6.3286,2.8164,7.3796,5.8121,0.1069,0.3252,0.5294,0.1718,0.2126,-0.1201,8.3916,4.81,-12.83,19.59,169.36,-48.9,-26.52,2,65.883,13.041683,77.590034,2616.85,NaN,19.94,12.226105,182.6,21 / 32,173550,2021-03-13 18:20:52:072,,,-0.105
2.5667,7.1409,4.9076,2.9558,7.3798,5.7422,-0.1596,-0.4038,-0.2622,0.0734,0.0312,0.0345,13.986,4.98,-11.3,19.96,168.14,-48.34,-27.17,2,68.458,13.041683,77.590034,2616.85,NaN,19.94,12.226105,182.6,21 / 32,174051,2021-03-13 18:20:52:573,,,-0.09
3.5144,7.7206,6.2356,3.1898,7.412,5.573,0.555,-0.0971,0.2538,0.0749,-0.1394,0.1753,8.3916,4.68,-11.91,19.12,167.06,-49.1,-29.79,2,67.739,13.041683,77.590034,2616.85,NaN,19.94,12.226105,182.6,21 / 32,174551,2021-03-13 18:20:53:073,,,-0.1
2.9087,7.0281,6.4186,2.7995,7.2444,5.9877,0.7499,0.3718,1.6033,0.0875,0.1655,-0.1759,11.1888,4.42,-13.67,18.83,167.3,-48.1,-27.56,2,68.729,13.041683,77.590034,2616.85,NaN,19.94,12.226105,182.6,21 / 32,175050,2021-03-13 18:20:53:572,,,-0.105
2.2452,8.0254,7.5031,1.8724,7.3794,6.1813,0.2672,0.477,1.0409,0.2064,0.1702,-0.025,11.1888,0.75,-8.76,21.29,164.77,-49.1,-18.64,2,65.914,13.041683,77.590034,2616.85,NaN,19.94,12.226105,182.6,21 / 32,175551,2021-03-13 18:20:54:073,,,-0.115
1.2957,7.182,5.5769,1.4625,7.8802,5.651,-0.0457,-0.4989,-0.1446,0.3026,-0.0774,0.0542,8.3916,-2.51,-5.73,23.16,156.77,-53.81,-15.23,2,64.934,13.041683,77.590034,2616.85,NaN,19.94,12.226105,182.6,21 / 32,176051,2021-03-13 18:20:54:573,,,-0.1
1.1771,7.3112,5.9531,1.6292,7.9833,5.4574,-0.0982,-0.1228,1.2828,-0.1657,0.0411,0.0452,13.986,-2.34,-5.14,23.99,157.52,-53.96,-16.48,2,65.92,13.041683,77.590034,2616.85,NaN,19.94,12.226105,182.6,21 / 32,176551,2021-03-13 18:20:55:073,,,-0.115
1.9979,7.6649,5.7448,2.6456,8.1581,4.7557,-0.354,0.1055,1.6641,0.2904,-0.1145,0.1502,13.986,1.11,-3.88,26.22,158.23,-55.64,-22.34,2,64.413,13.041683,77.590034,2616.85,NaN,19.94,12.226105,182.6,21 / 32,177051,2021-03-13 18:20:55:573,,,-0.11
1.9138,7.6728,5.5461,2.2661,7.6451,5.7085,-0.5787,0.1209,0.6106,-0.0385,-0.1656,0.0158,13.986,-1.22,-5.08,24.67,154.15,-51.22,-21.65,2,69.205,13.041683,77.590034,2616.85,NaN,19.94,12.226105,182.6,21 / 32,177551,2021-03-13 18:20:56:073,,,-0.135
2.6248,8.1136,4.2447,2.7599,7.9804,4.9867,-0.1291,-0.0553,-0.5123,-0.2254,-0.0366,0.0536,11.1888,0.49,-4.36,25.05,150.8,-53.99,-27.07,2,70.507,13.041683,77.590034,2616.85,NaN,19.94,12.226105,182.6,21 / 32,178051,2021-03-13 18:20:56:573,,,-0.095
6.0528,7.2319,5.6302,5.3223,7.149,4.0909,0.7076,0.3934,1.1608,-0.9038,-0.8538,0.4068,11.1888,11.49,-8.98,21.16,155.52,-46.8,-52.45,2,68.365,13.041683,77.590034,2616.85,NaN,19.94,12.226105,182.6,21 / 32,178551,2021-03-13 18:20:57:073,,,-0.125
4.8883,6.7254,6.1569,4.6903,7.08,4.9036,0.5097,-0.4949,0.1574,0.1045,0.4407,-0.091,16.7832,8.4,-9.14,22.74,155.52,-46.22,-43.73,2,67.244,13.041683,77.590034,2616.85,NaN,19.94,12.226105,182.6,21 / 32,179050,2021-03-13 18:20:57:572,,,-0.105
3.3211,6.8875,6.8389,3.2578,7.117,5.9081,0.4689,-0.2732,1.9806,0.6639,0.5008,-0.004,16.7832,3.02,-7.36,22.81,157.51,-46.53,-28.87,2,67.139,13.041683,77.590034,2616.85,NaN,19.94,12.226105,182.6,21 / 32,179551,2021-03-13 18:20:58:073,,,-0.085
1.7455,6.2004,8.5435,1.3665,5.1661,8.2228,0.2406,1.1481,-2.2162,-1.1086,1.0651,-0.2918,11.1888,-3.4,-10.76,17.63,162.23,-31.79,-9.44,2,69.993,13.041683,77.590034,2616.85,NaN,19.94,12.226105,182.6,21 / 32,180051,2021-03-13 18:20:58:573,,,-0.015
-0.4978,3.5388,8.747,-0.6194,3.8449,9.0002,0.676,0.2928,-0.3124,0.4942,-0.8297,-0.3472,13.986,-0.43,-19.21,13.95,182.4,-23.08,3.94,2,67.116,13.041683,77.590034,2616.85,NaN,19.94,12.226105,182.6,21 / 32,180551,2021-03-13 18:20:59:073,,,0.02
-0.4359,6.2996,6.8618,-0.4497,6.2762,7.5218,-0.1197,0.2811,-1.2105,-0.0321,0.8617,0.4668,13.986,3.2,-12.18,21.5,188.54,-42.46,1.23,2,72.599,13.041683,77.590034,2616.85,NaN,19.94,12.226105,182.6,21 / 32,181051,2021-03-13 18:20:59:573,,,0.03
-0.6715,6.0571,7.2182,0.0683,6.2069,7.5921,-0.301,-0.2971,0.1605,-0.0011,-0.1034,-0.0328,11.1888,-0.79,-15.53,17.65,177.2,-39.27,-0.52,2,71.174,13.041683,77.590034,2616.85,NaN,19.94,12.226105,182.6,21 / 32,181551,2021-03-13 18:21:00:073,,,0.135
1.517,7.4309,7.7302,0.8503,6.779,7.0351,-0.2909,0.2566,-0.4009,0.1514,-0.0527,0.005,11.1888,-1.17,-12.7,18.16,171.72,-43.73,-6.89,2,71.706,13.041683,77.590034,2616.85,NaN,19.94,12.226105,182.6,21 / 32,182051,2021-03-13 18:21:00:573,,,0.16
1.332,7.0428,6.5862,0.8781,6.8638,6.9489,0.6494,0.3517,-0.043,-0.0198,-0.0463,-0.1598,11.1888,-1.35,-12.9,18.7,171.43,-44.42,-7.2,2,63.711,13.041683,77.590034,2616.85,NaN,19.94,12.226105,182.6,21 / 32,182551,2021-03-13 18:21:01:073,,,0.105
0.2396,6.4176,7.2162,0.479,6.6516,7.1901,0.1046,0.204,-0.4693,-0.2245,0.2761,-0.0334,11.1888,-1.14,-14.04,19.4,173.13,-43.57,-5.4,2,66.161,13.041683,77.590034,2616.85,NaN,19.94,12.226105,182.6,21 / 32,183051,2021-03-13 18:21:01:573,,,0.03
-4.3335,1.4731,11.6818,-2.1123,3.6183,8.8666,-1.1325,-0.9584,3.3325,-2.2267,0.789,-0.4667,11.1888,-5.21,-20.85,10.76,174.29,-26.38,12.96,2,64.111,13.041683,77.590034,2616.85,NaN,19.94,12.226105,182.6,21 / 32,183552,2021-03-13 18:21:02:074,,,-0.05
-0.4266,5.3214,6.4145,0.0645,6.3225,7.4962,-0.2735,-0.8931,0.0689,0.2239,-0.4775,0.0235,8.3916,-2.67,-14.3,17.21,171.73,-40.14,-0.49,2,70.057,13.041683,77.590034,2616.85,NaN,19.94,12.226105,182.6,21 / 32,184052,2021-03-13 18:21:02:574,,,-0.05
0.0467,5.4897,7.5951,-0.204,6.0759,7.695,0.0187,0.4422,0.5397,0.2983,0.2319,0.2521,11.1888,-5.37,-13.97,15.53,167.7,-38.28,1.52,2,67.103,13.041683,77.590034,2616.85,NaN,19.94,12.226105,182.6,21 / 32,184550,2021-03-13 18:21:03:072,,,-0.17
1.3412,6.4887,6.8882,0.7534,6.7726,7.0523,0.791,0.6238,0.073,0.0346,0.0555,-0.1897,11.1888,-2.35,-13.57,17.53,171.43,-42.11,-4.37,2,66.288,13.041683,77.590034,2616.85,NaN,19.94,12.226105,182.6,21 / 32,185051,2021-03-13 18:21:03:573,,,-0.205
0.4103,6.1935,5.911,0.5601,6.7739,7.069,0.0245,-0.1306,-0.6821,0.3506,0.1598,0.1473,13.986,-2.47,-14.27,17.83,169.63,-41.23,-6.6,2,71.719,13.041683,77.590034,2616.85,NaN,19.94,12.226105,182.6,21 / 32,185551,2021-03-13 18:21:04:073,,,-0.215
1.0933,6.027,5.4049,0.937,6.875,6.9301,0.2256,-0.0912,0.0287,0.0599,0.0355,0.0639,13.986,-2.48,-12.4,17.48,168.1,-43.52,-7.63,2,65.94,13.041683,77.590034,2616.85,NaN,19.94,12.226105,182.6,21 / 32,186051,2021-03-13 18:21:04:573,,,-0.175
1.7427,6.6987,6.8328,1.0922,6.9101,6.8722,0.2757,0.1885,1.047,0.0351,0.0305,0.0032,11.1888,-2.48,-11.58,18.79,167.02,-44.8,-9.03,2,65.17,13.041683,77.590034,2616.85,NaN,19.94,12.226105,182.6,21 / 32,186552,2021-03-13 18:21:05:074,,,-0.21
1.5605,6.8663,5.622,0.9075,6.8287,6.9797,0.3762,-0.6004,0.6651,-0.1476,0.1044,-0.0985,11.1888,-2.16,-11.8,17.62,168.12,-43.34,-7.64,2,64.058,13.041683,77.590034,2616.85,NaN,19.94,12.226105,182.6,21 / 32,187051,2021-03-13 18:21:05:573,,,-0.215
1.1435,6.9473,6.2158,0.9408,6.8034,7,0.5305,0.6906,-0.0047,-0.1589,0.0312,-0.033,8.3916,-1.09,-11.37,19.29,170.68,-43.83,-7.37,2,67.262,13.041683,77.590034,2616.85,NaN,19.94,12.226105,182.6,21 / 32,187551,2021-03-13 18:21:06:073,,,0.175
0.9472,6.1877,5.2085,1.1546,6.8635,6.9087,0.2073,-0.3665,-0.271,0.0728,-0.159,0.0043,11.1888,0.16,-11.36,18.76,171.99,-43.4,-8.9,2,68.986,13.041683,77.590034,2616.85,NaN,19.94,12.226105,182.6,21 / 32,188051,2021-03-13 18:21:06:573,,,1.09
2.0509,5.3765,7.9262,1.8145,6.8767,6.7519,0.8648,-0.5666,-1.1078,-0.1695,-0.1178,-0.0759,11.1888,-2.13,-8.3,18.69,159.35,-44.53,-15.04,2,66.925,13.041683,77.590034,2616.85,NaN,19.94,12.226105,182.6,21 / 32,188551,2021-03-13 18:21:07:073,,,1.7
1.3765,5.7886,6.3201,1.4281,6.4491,7.2484,0.3678,-0.6746,-0.8016,-0.178,-0.0951,0.0852,13.986,-0.79,-9.34,16.96,165.38,-41.02,-12.24,2,72.758,13.041683,77.590034,2616.85,NaN,19.94,12.226105,182.6,21 / 32,189051,2021-03-13 18:21:07:573,,,0.335
0.7403,5.4804,5.6025,1.5581,6.0305,7.5747,-0.8897,-0.4047,-1.3944,-1.1516,-0.3294,-0.1079,11.1888,-2.06,-10.18,16.28,165.32,-37.84,-9.28,2,72.456,13.041683,77.590034,2616.85,NaN,19.94,12.226105,182.6,21 / 32,189550,2021-03-13 18:21:08:072,,,-0.615
4.2979,2.967,9.3332,3.2149,4.5436,8.0741,0.9087,-0.9369,2.7872,-0.6307,0.0372,0.2572,11.1888,0.76,-22.65,8.68,173.65,-26.88,-23.81,2,72.919,13.041683,77.590034,2616.85,NaN,19.94,12.226105,182.6,21 / 32,190052,2021-03-13 18:21:08:574,,,-0.705
2.6388,4.6425,7.7918,2.7606,4.8864,8.0419,-0.2648,-0.1559,0.3807,0.0419,0.018,-0.1548,11.1888,3.29,-22.31,10.24,179.13,-27.87,-18.72,2,72.095,13.041683,77.590034,2616.85,NaN,19.94,12.226105,182.6,21 / 32,190552,2021-03-13 18:21:09:074,,,-0.46
2.4962,4.2143,7.4433,2.248,4.4695,8.4345,1.4171,-0.3253,1.6069,0.1838,0.1844,-0.21,13.986,0.59,-21.71,8.25,176.66,-28.45,-16.77,2,69.495,13.041683,77.590034,2616.85,NaN,19.94,12.226105,182.6,21 / 32,191051,2021-03-13 18:21:09:573,,,-0.175
1.3091,6.7462,6.7001,1.2787,6.668,7.0763,-0.0468,-0.3523,1.6018,0.1654,0.1929,-0.018,13.986,5.2,-18.59,14.29,185.81,-42.84,-10.24,2,69.446,13.041683,77.590034,2616.85,NaN,19.94,12.226105,182.6,21 / 32,191551,2021-03-13 18:21:10:073,,,-0.165
0.3029,7.1423,9.0517,1.1333,6.5812,7.1814,0.3494,0.9399,3.2099,-0.0026,0.2045,-0.0396,4.662,5.22,-19.74,14.51,185.87,-42.15,-8.97,2,66.862,13.041683,77.590034,2616.85,NaN,19.94,12.226105,182.6,21 / 32,192051,2021-03-13 18:21:10:573,,,-0.145
2.1046,7.8827,7.4156,1.8161,6.815,6.8138,-0.4144,0.2575,-0.478,-0.1204,-0.1777,-0.0636,13.986,6.94,-18.28,15.26,186.82,-44.02,-14.92,2,69.885,13.041683,77.590034,2616.85,NaN,19.94,12.226105,182.6,21 / 32,192551,2021-03-13 18:21:11:073,,,-0.155
1.0522,7.0414,6.1853,1.6369,7.0049,6.6651,-0.6843,-0.1308,-0.6033,-0.1561,-0.1799,0.0157,13.986,6.64,-17.94,15.59,187.43,-46.07,-12.94,2,67.898,13.041683,77.590034,2616.85,NaN,19.94,12.226105,182.6,21 / 32,193051,2021-03-13 18:21:11:573,,,-0.115
0.8128,7.3769,8.3178,1.6174,6.8899,6.7885,-0.3755,0.6334,2.445,0.0625,-0.0717,0.0416,10.2564,7.43,-18.42,15.73,187.1,-44.63,-13.4,2,66.97,13.041683,77.590034,2616.85,NaN,19.94,12.226105,182.6,21 / 32,193551,2021-03-13 18:21:12:073,,,-0.12
1.7756,6.987,8.1126,1.7881,6.7759,6.86,-0.2189,0.4411,2.38,0.0899,-0.0134,-0.048,13.986,7.47,-16.78,12.47,189.87,-43.71,-14.61,2,70.451,13.041683,77.590034,2616.85,NaN,19.94,12.226105,182.6,21 / 32,194051,2021-03-13 18:21:12:573,,,-0.105
1.5557,8.038,8.366,1.6295,7.0313,6.6389,-0.4496,1.0739,-0.3901,0.1097,0.1094,0.0141,13.986,8.47,-17.38,14.69,190.05,-45.81,-13.79,2,70.115,13.041683,77.590034,2616.85,NaN,19.94,12.226105,182.6,21 / 32,194551,2021-03-13 18:21:13:073,,,-0.105
1.2396,6.489,6.3916,1.6891,6.9859,6.6719,-0.1899,-0.5882,-0.6905,0.0749,-0.0022,-7.00E-04,12.1212,8.31,-18.02,14.3,190.9,-45.6,-13.34,2,66.796,13.041683,77.590034,2616.85,NaN,19.94,12.226105,182.6,21 / 32,195051,2021-03-13 18:21:13:573,,,-0.085
1.5499,6.5523,6.4856,1.6974,6.954,6.7031,-0.163,0.2153,1.1227,-0.0718,-0.1022,-0.0165,10.2564,7.82,-18.04,13.63,190.32,-45.16,-14.21,2,66.68,13.041683,77.590034,2616.85,NaN,19.94,12.226105,182.6,21 / 32,195551,2021-03-13 18:21:14:073,,,-0.06
1.1028,7.1002,6.6946,1.5867,7.0055,6.6765,0.0585,0.2893,0.741,-0.0733,-0.0296,-0.0323,12.1212,7.4,-18.57,14.7,187.65,-45.59,-13.37,2,66.107,13.041683,77.590034,2616.85,NaN,19.94,12.226105,182.6,21 / 32,196051,2021-03-13 18:21:14:573,,,-0.015
1.255,6.4158,7.8479,1.6476,6.791,6.8802,-0.8948,-0.4436,-0.6302,0.057,0.0103,0.0161,13.986,7.94,-19.24,13.34,191.31,-43.83,-13.47,2,64.954,13.041683,77.590034,2616.85,NaN,19.94,12.226105,182.6,21 / 32,196551,2021-03-13 18:21:15:073,,,-0.005
1.477,7.184,6.593,1.6911,6.8805,6.78,-0.2857,0.625,0.8761,-0.0618,-0.0719,0.0182,16.7832,8.48,-18.32,13.27,191.61,-44.59,-13.57,2,65.014,13.041683,77.590034,2616.85,NaN,19.94,12.226105,182.6,21 / 32,197051,2021-03-13 18:21:15:573,,,0.02
1.0922,7.2483,5.633,1.5315,7.0091,6.6856,-0.4149,-0.0978,-1.7295,0.1654,0.1557,-0.0038,16.7832,8.55,-18.43,14.76,191.99,-44.97,-13.63,2,63.535,13.041683,77.590034,2616.85,NaN,19.94,12.226105,182.6,21 / 32,197551,2021-03-13 18:21:16:073,,,0.05
1.4065,5.7188,5.6744,1.4771,6.8776,6.8328,-0.2989,-0.2761,0.7495,-0.0246,0.0365,-4.00E-04,13.0536,8.21,-17.65,14.03,191.63,-44.53,-12.2,2,64.744,13.041683,77.590034,2616.85,NaN,19.94,12.226105,182.6,21 / 32,198051,2021-03-13 18:21:16:573,,,0.08
1.6336,6.9357,6.6628,1.6464,6.8652,6.8065,-0.0744,-0.1956,-0.4595,0.0446,0.041,-0.0199,16.7832,8.25,-18.28,13.48,191.59,-44.43,-13.6,2,67.536,13.041683,77.590034,2616.85,NaN,19.94,12.226105,182.6,21 / 32,198551,2021-03-13 18:21:17:073,,,0.105
2.1316,5.9435,7.2398,1.7517,6.6933,6.95,-0.9588,0.1924,0.4376,0.1142,-0.2273,-0.165,16.7832,7.56,-19.56,12.64,190.95,-43.48,-13.52,2,65.709,13.041683,77.590034,2616.85,NaN,19.94,12.226105,182.6,21 / 32,199050,2021-03-13 18:21:17:572,,,0.18
1.4657,6.0974,5.9035,1.2378,6.8027,6.9542,0.1748,-0.4032,0.388,-0.0732,0.0262,-0.1341,11.1888,8.31,-19.24,13.18,193.09,-43.5,-10.55,2,73.039,13.041683,77.590034,2616.85,NaN,19.94,12.226105,182.6,21 / 32,199551,2021-03-13 18:21:18:073,,,0.205
0.727,6.3652,6.0386,1.2335,6.6319,7.1181,0.0123,-0.1198,-0.9106,0.175,0.0244,0.01,16.7832,8.78,-19.28,13.28,195.7,-42.58,-9.78,2,71.818,13.041683,77.590034,2616.85,NaN,19.94,12.226105,182.6,21 / 32,200052,2021-03-13 18:21:18:574,,,0.24
1.2674,6.4172,7.6946,1.1413,6.6822,7.0863,-0.1269,0.2442,-0.1351,-0.0778,-0.0801,-0.1522,13.986,9.53,-19.32,13.72,197.4,-42.95,-9.15,2,71.36,13.041683,77.590034,2616.85,NaN,19.94,12.226105,182.6,21 / 32,200551,2021-03-13 18:21:19:073,,,0.235
2.6327,5.307,6.6953,2.1581,6.0383,7.4197,-0.7475,0.3462,0.834,-0.2742,0.006,0.513,13.986,7.44,-20.06,12.49,190.52,-40.63,-11.74,2,71.839,13.041683,77.590034,2616.85,NaN,19.94,12.226105,182.6,21 / 32,201051,2021-03-13 18:21:19:573,,,0.27
2.0482,5.4993,9.326,2.122,5.4329,7.8836,0.5987,0.3369,0.5056,0.297,0.2036,0.3517,13.986,-0.59,-23.86,10.47,170.81,-34.26,-18.04,2,63.093,13.041683,77.590034,2616.85,NaN,19.94,12.226105,182.6,21 / 32,201551,2021-03-13 18:21:20:073,,,0.27
1.4524,5.5943,7.3129,1.6845,6.2478,7.3687,-0.381,-0.1834,0.8708,0.2135,0.2175,-0.0218,13.986,-0.86,-22,14.02,171.39,-39.3,-11.92,2,64.188,13.041683,77.590034,2616.85,NaN,19.94,12.226105,182.6,21 / 32,202051,2021-03-13 18:21:20:573,,,0.28
1.5752,5.6419,7.0311,1.6152,6.1295,7.4827,-0.1014,-0.4557,-0.3839,0.086,0.1263,-0.0167,13.986,-1.96,-21.06,12.43,169.1,-37.98,-12.38,2,66.531,13.041683,77.590034,2616.85,NaN,19.94,12.226105,182.6,21 / 32,202551,2021-03-13 18:21:21:073,,,0.26
1.7349,6.5708,7.1201,2.0095,6.4949,7.0674,-0.3126,0.0905,0.1798,0.2519,-0.1049,-0.0538,13.986,-0.26,-21.01,13.65,172.04,-39.97,-14.35,2,65.09,13.041683,77.590034,2616.85,NaN,19.94,12.226105,182.6,21 / 32,203050,2021-03-13 18:21:21:572,,,0.23
1.9185,6.3854,5.9842,1.8571,6.8293,6.7884,-0.0061,-0.2729,0.0468,0.0608,0.1887,-0.0327,13.986,1.06,-18.67,14.16,172.41,-43.62,-16.82,2,65.099,13.041683,77.590034,2616.85,NaN,19.94,12.226105,182.6,21 / 32,203551,2021-03-13 18:21:22:073,,,0.175
1.7198,6.2079,6.1898,1.7862,6.922,6.7132,0.0863,-0.285,0.5863,0.1407,0.0547,-0.0085,13.986,-1.37,-18.96,14.45,168.48,-43.72,-15.33,2,63.653,13.041683,77.590034,2616.85,NaN,19.94,12.226105,182.6,21 / 32,204051,2021-03-13 18:21:22:573,,,0.135
0.966,7.1156,7.0127,1.581,7.0628,6.6172,-0.3621,0.4698,-0.3201,0.2336,0.0475,-0.0867,11.1888,-1,-18.37,15.39,168.95,-46.07,-13.44,2,65.033,13.041683,77.590034,2616.85,NaN,19.94,12.226105,182.6,21 / 32,204550,2021-03-13 18:21:23:072,,,0.09
1.056,6.4942,6.58,1.6393,7.0699,6.5954,-0.3912,0.2384,-0.3555,0.1212,-0.0228,0.0713,9.324,-0.52,-18.33,14.3,168.87,-46.13,-13.96,2,66.093,13.041683,77.590034,2616.85,NaN,19.94,12.226105,182.6,21 / 32,205051,2021-03-13 18:21:23:573,,,0.045
2.7178,7.5958,6.1491,2.1834,7.1769,6.3163,-0.8527,-0.1183,0.1017,-0.1102,-0.3785,0.1401,10.2564,-1.25,-19.08,14.98,165.79,-47.04,-19.07,2,65.328,13.041683,77.590034,2616.85,NaN,19.94,12.226105,182.6,21 / 32,205551,2021-03-13 18:21:24:073,,,0
2.5225,7.0599,6.2339,2.4231,7.2844,6.1022,0.1715,-0.0564,-0.2438,0.057,0.127,0.0078,13.986,-2.75,-19.37,15.43,159.49,-47.97,-21.66,2,66.238,13.041683,77.590034,2616.85,NaN,19.94,12.226105,182.6,21 / 32,206051,2021-03-13 18:21:24:573,,,-0.005
1.7109,6.752,5.9661,2.2581,7.2345,6.2237,-0.0671,0.0773,0.6587,-0.089,-0.1415,0.0333,11.1888,-1.54,-20.61,15.25,163.8,-47.54,-19.94,2,65.525,13.041683,77.590034,2616.85,NaN,19.94,12.226105,182.6,21 / 32,206551,2021-03-13 18:21:25:073,,,-0.025
2.579,7.4911,6.7161,2.5364,7.2808,6.0603,0.1375,0.3355,0.6017,0.0566,-0.0778,0.0359,13.986,-7.03,-20.46,15.63,150.87,-47.74,-22.15,2,66.062,13.041683,77.590034,2616.85,NaN,19.94,12.226105,182.6,21 / 32,207051,2021-03-13 18:21:25:573,,,-0.025
2.3936,6.8396,6.2291,2.5436,7.216,6.1343,0.0865,-0.1127,0.0316,0.0266,0.0386,0.0114,13.986,-8.13,-21.15,17.13,149.42,-47.38,-22.52,2,63.894,13.041683,77.590034,2616.85,NaN,19.94,12.226105,182.6,21 / 32,207551,2021-03-13 18:21:26:073,,,-0.025
1.0539,6.4853,5.8816,1.4718,7.0303,6.6767,1.0489,0.3791,0.1484,-0.2431,0.4146,-0.5996,13.986,-2.79,-17.42,15.6,164.24,-45.8,-12.43,2,65.388,13.041683,77.590034,2616.85,NaN,19.94,12.226105,182.6,21 / 32,208050,2021-03-13 18:21:26:572,,,-0.02
1.0563,6.3734,7.892,1.29,6.7808,6.9661,-0.2943,0.4015,-0.9135,-0.2873,-0.1642,-0.0251,11.1888,-0.62,-17.07,16.52,170.24,-43.75,-10.49,2,65.126,13.041683,77.590034,2616.85,NaN,19.94,12.226105,182.6,21 / 32,208551,2021-03-13 18:21:27:073,,,0
1.1572,6.6512,5.9145,1.4244,6.6678,7.0486,-0.2337,0.2837,-1.0596,-0.0737,-0.1439,0.1017,9.324,0.79,-18.38,17.42,174.9,-43.04,-10.8,2,65.356,13.041683,77.590034,2616.85,NaN,19.94,12.226105,182.6,21 / 32,209051,2021-03-13 18:21:27:573,,,-0.005
0.8744,6.0502,8.8965,1.5721,6.6015,7.0795,-0.4566,-0.2579,1.7495,0.3389,-0.2103,-0.1065,16.7832,-0.16,-19.25,16.05,172.48,-40.67,-11.72,2,66.116,13.041683,77.590034,2616.85,NaN,19.94,12.226105,182.6,21 / 32,209551,2021-03-13 18:21:28:073,,,-0.005
0.5922,7.3201,4.3737,1.1095,7.3263,6.4237,0.1847,-1.1358,0.5209,-0.143,-0.1645,0.0208,10.2564,-0.79,-14.29,17.61,169.77,-48.34,-9.8,2,66.788,13.041683,77.590034,2616.85,NaN,19.94,12.226105,182.6,21 / 32,210051,2021-03-13 18:21:28:573,,,-0.005
1.4425,6.7657,6.2544,1.4051,7.143,6.5707,-0.7265,-0.3152,-0.3165,0.0349,-0.1321,0.1708,13.986,-2.23,-16.31,18.28,166.31,-46.75,-12.07,2,66.879,13.041683,77.590034,2616.85,NaN,19.94,12.226105,182.6,21 / 32,210550,2021-03-13 18:21:29:072,,,-0.005
0.0067,5.8697,6.1498,0.9807,6.4138,7.3534,-0.3394,1.7161,-1.1418,-1.3284,0.1767,-0.4606,13.986,-3.56,-16.86,17.57,161.95,-45.78,-12.39,2,64.109,13.041683,77.590034,2616.85,NaN,19.94,12.226105,182.6,21 / 32,211051,2021-03-13 18:21:29:573,,,-0.01
6.3401,5.0461,4.5351,2.911,3.8063,8.5562,2.6645,0.5828,-3.7284,-1.2838,1.7823,0.7434,11.1888,-3.86,-19.99,9.68,157.71,-32.84,-29.35,2,70.732,13.041683,77.590034,2616.85,NaN,19.94,12.226105,182.6,21 / 32,211551,2021-03-13 18:21:30:073,,,-0.025
3.2343,5.5824,7.8981,3.13,5.5901,7.4246,0.2879,-0.3278,0.949,-0.1411,0.9795,0.2828,11.1888,-17.54,22.99,-43.2,359.85,-34.75,-22.86,2,71.929,13.041683,77.590034,2616.85,NaN,19.94,12.226105,182.6,21 / 32,212050,2021-03-13 18:21:30:572,,,-0.02
-0.3483,0.9368,10.0279,1.7719,2.4921,9.3177,2.1982,2.157,3.2421,-1.2084,1.0247,-0.1405,13.986,-7.35,-14.27,3.34,151.95,-14.72,-10.77,2,70.78,13.041683,77.590034,2616.85,NaN,19.94,12.226105,182.6,21 / 32,212551,2021-03-13 18:21:31:073,,,-0.04
0.1859,5.2362,7.5955,0.9194,4.8134,8.4945,2.4781,-0.3825,0.1576,0.6706,0.5485,0.0077,19.5804,-5.51,-14.7,10.13,157,-23.51,-8.22,2,67.701,13.041683,77.590034,2616.85,NaN,19.94,12.226105,182.6,21 / 32,213051,2021-03-13 18:21:31:573,,,-0.04
-0.2505,5.9541,7.4275,0.7562,5.9362,7.7692,-0.7437,-0.0985,0.2169,-0.0278,0.1418,-0.1032,13.986,-8.26,-15,14.76,154.69,-37.23,-6.52,2,63.299,13.041683,77.590034,2616.85,NaN,19.94,12.226105,182.6,21 / 32,213551,2021-03-13 18:21:32:073,,,-0.04
1.0755,6.3772,7.3328,2.1717,6.3785,7.1252,-0.7984,0.1416,0.9287,-0.1089,-0.5283,0.0707,13.986,-60.33,-21.26,30.64,111.84,-41.38,-13.67,2,63.443,13.041683,77.590034,2616.85,NaN,19.94,12.226105,182.6,21 / 32,214050,2021-03-13 18:21:32:572,,,-0.05
1.7766,6.8081,6.0991,1.9338,6.6353,6.9572,1.0841,0.4139,0.614,-0.1814,0.2729,0.0911,11.1888,-59.67,-26.94,22.7,110.57,-42.58,-15.53,0,63.763,13.041683,77.590034,2616.85,NaN,19.94,12.226105,182.6,21 / 32,214551,2021-03-13 18:21:33:073,,,-0.06
1.8949,6.026,9.0774,1.6702,5.9785,7.592,0.1389,0.8232,-1.1767,-0.2158,0.1592,-0.2739,9.324,-54.08,-28.41,24.36,115.57,-42.79,-13.55,2,67.271,13.041683,77.590034,2616.85,NaN,19.94,12.226105,182.6,21 / 32,215051,2021-03-13 18:21:33:573,,,-0.05
1.9244,6.1552,7.421,2.3787,6.1119,7.2909,-0.4929,0.1143,-0.1546,-0.1371,-0.1747,0.0801,11.1888,-55.99,-30.02,31.18,117.41,-39.54,-15.92,0,65.325,13.041683,77.590034,2616.85,NaN,19.94,12.226105,182.6,21 / 32,215550,2021-03-13 18:21:34:072,,,-0.065
0.649,5.7811,6.7862,0.9472,6.3195,7.4389,-0.5227,-0.3244,-0.6062,0.1335,0.4819,-0.2131,13.986,-27.19,-11.29,24.32,121.8,-39.42,-12.69,2,66.81,13.041683,77.590034,2616.85,NaN,19.94,12.226105,182.6,21 / 32,216051,2021-03-13 18:21:34:573,,,-0.06
0.4756,6.0181,7.4484,0.6057,5.9692,7.7571,-0.1073,0.0954,-0.1122,-0.1255,0.1071,-0.0718,13.986,-10.31,-16.64,13.49,152,-38.31,-4.92,2,64.115,13.034383,77.58863,2698.39,NaN,5,193.54839,,0 / 0,216551,2021-03-13 18:21:35:073,,,-0.07
0.3938,5.7243,8.4672,1.147,5.6805,7.9111,0.0196,-0.0652,-1.352,0.1146,0.0358,0.0961,11.1888,-10.34,-16.45,15.13,149.94,-35.85,-8.25,2,64.43,13.034383,77.58863,2698.39,NaN,6,193.54839,,0 / 8,217050,2021-03-13 18:21:35:572,,,-0.06
1.7021,5.816,7.7986,1.7545,5.595,7.8606,-0.3034,0.2309,-0.3326,-0.0906,-0.0841,0.1502,11.1888,-10.09,-16.96,14.78,148.27,-34.79,-12.58,2,65.404,13.034205,77.58839,2507.4,NaN,0,38.061558,,0 / 18,217552,2021-03-13 18:21:36:074,,,-0.09
1.7899,6.1262,8.4023,1.7174,5.9552,7.5998,-0.9602,0.4501,-0.1215,0.0849,-0.0719,0.2242,11.1888,-14.94,-16.39,15.21,137.52,-37.39,-12.73,2,66.169,13.034205,77.58839,2507.4,NaN,0,38.061558,,0 / 18,218051,2021-03-13 18:21:36:573,,,-0.08
2.4808,6.3543,6.7182,1.9289,6.2787,7.282,0.9605,0.5405,-0.4395,0.0238,0.2255,0.0689,10.2564,-26.4,-15.33,19.81,122.99,-39.81,-14.84,2,67.961,13.034118,77.58841,2605.73,NaN,0,21.682133,,16 / 21,218551,2021-03-13 18:21:37:073,,,-0.095
0.5878,5.4418,7.0958,0.9958,5.7041,7.9147,-0.3832,-0.0071,-0.5721,0.0961,-0.1129,0.1923,13.986,-10.33,-17.54,13.69,153.06,-35.18,-5.44,2,67.998,13.034118,77.58841,2605.73,NaN,0,21.682133,,16 / 21,219052,2021-03-13 18:21:37:574,,,-0.085
1.1942,6.1898,7.156,0.8914,5.789,7.8653,0.1313,0.4774,-0.0661,-0.075,-0.0535,-0.063,13.986,-11.13,-17.01,13.24,148.99,-36.18,-6.47,2,66.747,13.033952,77.58838,2624.86,NaN,57.13,14.774889,190.8,18 / 26,219551,2021-03-13 18:21:38:073,,,-0.1
0.9965,5.6446,7.2052,0.6253,5.5639,8.0512,0.5512,0.1811,0.0124,-0.209,0.3079,0.0448,13.986,-10.87,-18.15,12.86,151.1,-34.57,-4.44,2,65.636,13.033952,77.58838,2624.86,NaN,57.13,14.774889,190.8,18 / 26,220050,2021-03-13 18:21:38:572,,,-0.09
0.3347,5.1241,8.7043,0.6232,5.4311,8.1415,-0.3124,-0.2765,-0.8484,0.2682,-0.082,0.0647,10.2564,-10.71,-18.9,11.43,151.15,-33.63,-4.38,2,66.617,13.033838,77.58835,2599.61,NaN,39.42,14.2932,188.8,21 / 27,220551,2021-03-13 18:21:39:073,,,-0.095
1.1907,5.8245,7.2011,0.8385,5.5213,8.0612,0.5413,0.4812,-0.3895,-0.2413,0.0623,-0.0106,11.1888,-11.01,-17.96,12.66,150.68,-34.92,-5.19,2,66.378,13.033838,77.58835,2599.61,NaN,39.42,14.2932,188.8,21 / 27,221051,2021-03-13 18:21:39:573,,,-0.085
2.2924,5.3642,8.5189,1.2223,5.5005,8.0263,-0.1852,0.0303,0.059,-0.0787,0.1875,-0.0977,16.7832,-11.02,-19.39,8.45,147.88,-34.12,-8.66,2,68.236,13.03372,77.58837,2621.21,NaN,41.22,14.187685,186.1,19 / 24,221550,2021-03-13 18:21:40:072,,,-0.1
1.4373,5.0297,8.4584,1.1228,5.5145,8.0312,0.3295,-0.7276,-2.063,-0.1677,-0.1199,0.1308,11.1888,-10.63,-21.33,10.32,150.92,-34.22,-7.96,2,67.163,13.03372,77.58837,2621.21,NaN,41.22,14.187685,186.1,19 / 24,222051,2021-03-13 18:21:40:573,,,-0.075
2.2274,6.0885,9.746,1.2703,5.6309,7.9278,0.1932,0.1956,-0.4328,-0.1609,-0.1262,0.1462,13.986,-8.22,-19.04,12.63,155.84,-35.04,-9.1,2,66.085,13.033589,77.5883,2620.55,NaN,42.88,14.669688,191,19 / 24,222550,2021-03-13 18:21:41:072,,,-0.095
0.4144,5.9593,7.5602,0.5294,5.7008,7.9619,-0.0653,0.4978,0.3027,-0.3112,-0.1108,0.0788,11.1888,-8.36,-18.89,13.91,158.94,-37.02,-3.97,2,67.162,13.033589,77.5883,2620.55,NaN,42.88,14.669688,191,19 / 24,223051,2021-03-13 18:21:41:573,,,-0.08
-0.7953,5.8868,7.6895,-0.1185,6.1029,7.6753,-0.9072,-0.0885,0.0022,0.0668,-0.0391,-0.1129,13.986,-8.61,-20.04,12.89,159.44,-38.16,0.34,2,67.059,13.033468,77.58827,2629.79,NaN,44.06,13.588556,195,19 / 26,223550,2021-03-13 18:21:42:072,,,-0.075
0.7776,6.2158,7.5732,0.4896,6.1867,7.5931,-0.0439,-0.0208,-0.4243,-0.0484,-0.1994,0.1015,13.986,-8.07,-20.01,14.3,159.69,-39.11,-3.69,2,66.862,13.033468,77.58827,2629.79,NaN,44.06,13.588556,195,19 / 26,224051,2021-03-13 18:21:42:573,,,0
1.1706,5.3064,7.5089,0.9493,5.9338,7.7498,0.3501,-0.3707,-0.6824,-0.132,-0.54,0.0074,13.986,-4.67,-18.63,13.05,163.83,-37.23,-6.98,2,65.818,13.03335,77.58826,2636.17,NaN,44.21,13.626197,194.5,20 / 26,224551,2021-03-13 18:21:43:073,,,0.03
1.0707,5.2417,8.8599,1.0105,5.6555,7.9476,-0.1404,-0.1593,-0.3801,-0.0441,0.1277,0.0372,9.324,-5.35,-18.92,13.77,163.53,-35.77,-7.74,2,65.043,13.03335,77.58826,2636.17,NaN,44.21,13.626197,194.5,20 / 26,225051,2021-03-13 18:21:43:573,,,0.035
0.756,5.0119,8.0698,1.0648,5.6705,7.9298,-0.5833,-0.6227,0.4579,0.0468,-0.1647,0.1136,16.7832,-4.66,-19.84,12.5,164.26,-35.36,-7.23,2,64.469,13.033236,77.588234,2638.84,NaN,44.24,13.214842,196.4,20 / 26,225550,2021-03-13 18:21:44:072,,,0.135
1.6436,5.373,8.2176,1.5028,5.8878,7.6971,0.2909,-0.3853,0.8812,0.2879,-0.3577,-0.1175,13.986,-3.35,-19.16,12.89,167.68,-36.27,-8.77,2,66.302,13.033236,77.588234,2638.84,NaN,44.24,13.214842,196.4,20 / 26,226051,2021-03-13 18:21:44:573,,,0.145
1.7164,5.779,8.2395,1.4367,5.7091,7.843,0.1669,0.3616,0.7373,0.1668,-0.1893,-0.098,11.1888,-1.38,-19.68,14.05,171.75,-35.6,-10.38,2,63.834,13.033143,77.58821,2636.36,NaN,41.8,12.508029,197.1,20 / 27,226551,2021-03-13 18:21:45:073,,,0.07
1.1764,5.7681,7.7699,1.3115,5.8558,7.7563,0.24,0.4865,0.1881,-0.1161,-0.1382,-0.0915,13.986,-1.27,-18.74,12.85,172.31,-36.81,-9.27,2,67.501,13.033143,77.58821,2636.36,NaN,41.8,12.508029,197.1,20 / 27,227051,2021-03-13 18:21:45:573,,,0.015
0.6866,6.0519,6.5944,0.9519,6.1013,7.6183,-0.0248,-0.867,-0.1971,0.2269,0.2219,-0.0509,9.324,-1.6,-19.1,13.73,170.01,-37.37,-8.75,2,66.465,13.033043,77.58817,2639.47,NaN,43.74,12.226105,199.3,21 / 27,227550,2021-03-13 18:21:46:072,,,-0.045
0.9701,5.0895,6.5892,0.9515,5.9966,7.701,-0.0235,-0.5718,-0.812,-0.0905,0.0705,-0.1266,11.1888,-1.44,-18.52,14.36,172.66,-38.31,-8.32,2,66.099,13.033043,77.58817,2639.47,NaN,43.74,12.226105,199.3,21 / 27,228051,2021-03-13 18:21:46:573,,,-0.055
1.1063,6.224,8.7419,1.0952,6.0191,7.6643,0.0732,0.2746,1.1688,0.1269,0.0742,-0.0369,11.1888,0.31,-19.07,12.87,175.3,-36.95,-8.34,2,64.074,13.032937,77.588135,2640.67,NaN,43.52,12.938606,201,21 / 27,228551,2021-03-13 18:21:47:073,,,-0.185
0.7092,5.4801,7.458,1.0865,5.9811,7.6952,-0.3217,0.0074,-0.3509,0.0571,-0.0444,-0.0245,11.1888,0.94,-19.03,13.92,177.46,-36.95,-8.35,2,64.853,13.032937,77.588135,2640.67,NaN,43.52,12.938606,201,21 / 27,229078,2021-03-13 18:21:47:600,,,-0.19
0.9,5.766,7.7637,0.9839,5.9391,7.7414,0.0747,0.1094,0.5612,0.0514,0.324,0.0838,11.1888,0.7,-18.91,13,177.34,-37.41,-9.09,2,65.187,13.032844,77.58811,2643.25,NaN,42.62,15.074553,200.7,21 / 27,229551,2021-03-13 18:21:48:073,,,-0.22
0.5344,5.3816,6.3279,0.9294,5.9651,7.7281,-0.4072,-0.7643,-0.5946,-0.0541,-0.1348,-0.0204,8.3916,0.31,-18.99,14.17,175.94,-37.1,-6.85,2,65.238,13.032844,77.58811,2643.25,NaN,42.62,15.074553,200.7,21 / 27,230051,2021-03-13 18:21:48:573,,,-0.18
0.6832,5.7458,7.4087,1.0262,5.96,7.7198,-0.358,-0.3214,-0.0413,-0.0534,-0.124,-0.0183,6.5268,1.53,-18.76,14.17,180.33,-37.43,-7.57,2,62.763,13.032738,77.58806,2643.92,NaN,45.9,14.035553,204.2,21 / 27,230550,2021-03-13 18:21:49:072,,,-0.21
0.7242,5.3091,7.1098,0.7846,5.8811,7.8082,0.0522,0.1586,1.28,0.2137,-0.1412,-0.0636,11.1888,0.48,-18.14,12.8,176.64,-36.85,-5.74,2,64.892,13.032738,77.58806,2643.92,NaN,45.9,14.035553,204.2,21 / 27,231050,2021-03-13 18:21:49:572,,,-0.185
0.4103,5.2075,6.9025,0.3138,6.1582,7.6255,0.1259,-0.615,-0.2561,0.2348,0.1382,-0.0213,13.986,-1.01,-17.71,15.12,176.05,-38.9,-2.36,2,65.093,13.032619,77.588,2646.67,NaN,46.4,13.690307,204.1,21 / 28,231554,2021-03-13 18:21:50:076,,,0.22
-0.3418,5.9107,6.5947,0.1409,6.2415,7.5627,-0.3753,-0.0302,0.2014,0.1216,0.0371,-0.0484,11.1888,-1.19,-17.15,15.72,176.81,-39.53,-1.07,2,64.674,13.032619,77.588,2646.67,NaN,46.4,13.690307,204.1,21 / 28,232050,2021-03-13 18:21:50:572,,,1.15
-0.4547,6.292,5.9069,0.2435,6.1758,7.6139,-0.3093,-0.241,-2.2666,-0.5301,-0.1435,0.1416,13.986,1.81,-16.41,10.93,184.86,-39.03,-1.83,2,63.477,13.032521,77.58795,2647.29,NaN,46.51,12.853822,205.2,22 / 28,232551,2021-03-13 18:21:51:073,,,1.72
-0.2553,5.5978,6.0239,0.2443,5.9496,7.7919,-0.1201,-0.597,-0.1624,-0.2105,0.1583,-0.0157,16.7832,1.86,-20.4,11.08,183.98,-36.94,-2.21,2,66.08,13.032521,77.58795,2647.29,NaN,46.51,12.853822,205.2,22 / 28,233051,2021-03-13 18:21:51:573,,,0.155
0.9144,6.3731,7.4549,0.6778,5.9046,7.8005,-0.2059,-0.5206,-0.4788,0.1887,0.0458,0.0363,13.986,1.91,-19.5,13.96,181.89,-37.02,-4.97,2,65.034,13.032417,77.58789,2649.72,NaN,47.09,12.498939,210,21 / 28,233550,2021-03-13 18:21:52:072,,,-0.7
0.546,5.0167,5.2427,0.5819,5.9515,7.7725,-0.4316,-1.1545,-1.9417,-0.3343,-0.0113,0.0603,14.9184,2.47,-18.31,12.31,182.9,-37.36,-4.28,2,68.365,13.032417,77.58789,2649.72,NaN,47.09,12.498939,210,21 / 28,234051,2021-03-13 18:21:52:573,,,-0.66
1.1292,5.8909,9.0576,1.0261,5.6826,7.9263,0.2386,1.2618,1.0153,-0.1294,0.1413,0.0173,16.7832,1.89,-18.71,12.76,180.78,-35.41,-7.38,2,67.932,13.032305,77.58783,2654.04,NaN,49.07,12.226105,210.7,20 / 29,234551,2021-03-13 18:21:53:073,,,-0.405
0.5433,6.04,8.6995,0.893,5.8849,7.7937,-0.2908,0.0993,-0.2972,-0.0886,0.2035,-0.03,14.9184,3.38,-18.15,13.14,183.44,-36.67,-7.21,2,67.902,13.032305,77.58783,2654.04,NaN,49.07,12.226105,210.7,20 / 29,235050,2021-03-13 18:21:53:572,,,-0.15
0.1924,5.5909,7.6255,0.754,5.9603,7.7509,-0.3381,-0.1682,0.1891,0.1977,-0.1278,0.0447,16.7832,0.68,-17.88,12.56,179.28,-37.25,-5.62,2,68.74,13.032191,77.587776,2658.78,NaN,49.82,12.226105,207.6,21 / 29,235551,2021-03-13 18:21:54:073,,,-0.16
0.7629,5.5078,8.038,0.9652,5.8082,7.8425,0.107,0.1717,0.285,6.00E-04,-0.0146,0.0089,13.986,1.22,-19.08,12.51,178.52,-36.32,-7.02,2,66.556,13.032191,77.587776,2658.78,NaN,49.82,12.226105,207.6,21 / 29,236051,2021-03-13 18:21:54:573,,,-0.135
0.7256,5.5844,6.185,0.8938,6.0625,7.6562,-0.0189,-0.7276,-0.0218,0.1159,-0.1506,-0.0301,16.7832,2.06,-18.12,13.35,181.23,-38.19,-6.66,2,65.38,13.032071,77.587715,2657.04,NaN,49.97,12.226105,207.1,20 / 29,236551,2021-03-13 18:21:55:073,,,-0.145
0.1828,6.0957,7.8321,0.6509,6.2256,7.5491,-0.4036,-0.072,0.5063,0.3037,0.0449,0.0849,13.986,1.42,-19,13.87,178.75,-38.26,-6.18,2,66.581,13.032071,77.587715,2657.04,NaN,49.97,12.226105,207.1,20 / 29,237051,2021-03-13 18:21:55:573,,,-0.12
1.0734,5.9866,6.6539,0.9938,6.4589,7.312,0.0835,-0.5334,-0.4086,0.127,-0.1504,-0.1841,13.0536,0.71,-17.88,13.83,177.43,-41.49,-8.26,2,64.87,13.03195,77.58764,2657.5,NaN,51.8,12.226105,205,21 / 29,237551,2021-03-13 18:21:56:073,,,-0.125
0.2143,6.3416,8.2997,0.6401,6.28,7.5048,0.0639,-0.6375,-0.5036,-0.057,0.0198,-0.0585,13.0536,1.33,-18.02,13.74,179.51,-39.82,-4.87,2,66.342,13.03195,77.58764,2657.5,NaN,51.8,12.226105,205,21 / 29,238051,2021-03-13 18:21:56:573,,,-0.09
0.0963,6.0273,6.4244,0.5296,6.3857,7.4238,0.092,-0.0959,-0.4964,0.0046,-0.0436,-0.0417,16.7832,1.16,-17.9,14.75,179.83,-40.63,-4.08,2,68.22,13.031833,77.587585,2657.73,NaN,52.31,12.226105,206.7,21 / 29,238551,2021-03-13 18:21:57:073,,,-0.09
0.9363,6.2062,8.7699,1.0853,5.8993,7.7583,-0.5521,0.1111,0.8163,-0.0813,-0.0399,0.0307,13.986,1.98,-19.13,14.45,180.56,-38.61,-7.19,2,66.201,13.031833,77.587585,2657.73,NaN,52.31,12.226105,206.7,21 / 29,239051,2021-03-13 18:21:57:573,,,-0.055
0.7766,5.2509,7.4867,1.1535,5.9088,7.7411,-0.4004,-0.4441,0.056,0.1072,-0.0811,-0.0044,11.1888,1.09,-20.21,13.73,177.55,-36.04,-8.35,2,67.213,13.031706,77.58752,2659.5,NaN,54.47,12.226105,207.3,21 / 29,239551,2021-03-13 18:21:58:073,,,-0.04
0.8303,5.2291,6.3006,0.9839,5.8513,7.808,-0.4047,-0.5037,-0.1022,-0.1691,0.1709,-0.0181,11.1888,-0.23,-19.07,12.74,176.22,-35.17,-6.71,2,65.28,13.031706,77.58752,2659.5,NaN,54.47,12.226105,207.3,21 / 29,240051,2021-03-13 18:21:58:573,,,-0.015
0.3425,5.4982,7.7025,0.9396,5.79,7.8589,-0.1171,-0.6675,-0.6094,0.0494,-0.0711,-0.0192,11.1888,-0.06,-18.56,12.55,176.15,-36.19,-6.82,2,63.892,13.031582,77.58746,2660.06,NaN,53.06,12.226105,205.6,22 / 29,240551,2021-03-13 18:21:59:073,,,0
0.8727,5.5177,7.3878,1.4763,5.8244,7.7503,-1.401,0.4353,-1.0798,-0.1672,-0.804,-0.0811,11.1888,1.16,-19.8,13.88,179.03,-36.96,-5.78,2,65.768,13.031582,77.58746,2660.06,NaN,53.06,12.226105,205.6,22 / 29,241051,2021-03-13 18:21:59:573,,,0.03
0.847,5.6774,7.8735,1.194,5.8165,7.8047,-0.1551,0.0596,-0.1167,0.0973,0.0203,0.0849,7.4592,0.49,-19.9,13.77,174.78,-36.1,-9.12,2,65.564,13.031461,77.58741,2659.27,NaN,52.06,12.226105,207,20 / 29,241551,2021-03-13 18:22:00:073,,,0.05
1.2113,5.4733,8.6003,1.1812,5.7115,7.8838,0.0613,-0.0204,-0.8444,-0.0847,0.1078,-0.0129,13.986,-0.38,-19.34,14.57,174.97,-35.93,-8.13,2,67.143,13.031461,77.58741,2659.27,NaN,52.06,12.226105,207,20 / 29,242051,2021-03-13 18:22:00:573,,,0.095
0.9349,5.8108,7.4552,1.1501,5.9261,7.7284,-0.0071,0.0316,0.1343,0.0264,0,-0.0246,11.1888,0.13,-18.54,13.77,174.1,-37.23,-9.98,2,65.086,13.031343,77.58736,2659.55,NaN,51.7,12.226105,204.8,20 / 29,242551,2021-03-13 18:22:01:073,,,0.11
1.3453,6.1764,8.3838,1.5362,6.0688,7.5485,-0.536,-0.0435,-0.1301,0.1052,-0.0791,-0.0383,11.1888,0.84,-18.92,14.62,177.25,-37.71,-8.25,2,65.217,13.031343,77.58736,2659.55,NaN,51.7,12.226105,204.8,20 / 29,243050,2021-03-13 18:22:01:572,,,0.165
1.4797,6.2431,7.5746,1.6054,6.0704,7.5329,-0.197,-0.0107,-0.2555,-0.0527,0.1151,0.0863,11.1888,-0.08,-19.07,14.93,172.58,-38.24,-12.03,2,64.909,13.03122,77.587296,2656.65,NaN,52.74,12.226105,206.7,20 / 29,243552,2021-03-13 18:22:02:074,,,0.19
1.3375,5.7434,7.7771,1.3819,5.8055,7.7818,0.1912,0.2524,-0.2848,-0.1932,0.1182,0.0282,11.1888,-1.29,-18.83,13.87,171.64,-36.3,-10.07,2,67.221,13.03122,77.587296,2656.65,NaN,52.74,12.226105,206.7,20 / 29,244051,2021-03-13 18:22:02:573,,,0.23
1.3529,5.9716,6.9381,1.24,6.0598,7.61,0.2566,0.0923,0.6851,-0.0035,0.1208,-0.0334,11.1888,-1.28,-18.4,15.26,171.66,-38.17,-9.25,2,66.905,13.031096,77.58724,2655.79,NaN,52.6,12.226105,203.5,21 / 28,244551,2021-03-13 18:22:03:073,,,0.245
0.8508,5.5044,6.4504,1.4139,5.9284,7.6828,-0.6148,-0.0916,-0.9311,0.119,-0.0855,-0.064,13.986,-0.69,-19.67,14.16,172.82,-35.89,-8.48,2,68.599,13.031096,77.58724,2655.79,NaN,52.6,12.226105,203.5,21 / 28,245051,2021-03-13 18:22:03:573,,,0.255
0.6695,5.4011,6.1754,0.7973,6.1723,7.5787,0.0627,-0.8476,-0.21,0.1066,0.4021,0.1153,13.986,-2.85,-18.94,14.75,169.24,-39.01,-6.01,2,67.587,13.030971,77.58717,2657.49,NaN,53.24,12.557675,204.8,21 / 28,245551,2021-03-13 18:22:04:073,,,0.255
0.938,6.1888,5.4955,1.0295,6.5111,7.2605,-0.0068,-0.2868,-0.7801,-0.178,-0.2428,0.1242,11.1888,-3.4,-17.87,15.79,167.59,-41.6,-8.07,2,67.859,13.030971,77.58717,2657.49,NaN,53.24,12.557675,204.8,21 / 28,246051,2021-03-13 18:22:04:573,,,0.265
2.0656,5.8515,7.8862,1.3308,6.158,7.5152,0.3948,0.0183,-0.1852,0.0106,-0.054,-0.0782,13.986,-3.09,-18.94,14.1,166.86,-38.9,-10.04,2,67.785,13.030847,77.58712,2658.39,NaN,53.24,14.137525,198.9,20 / 28,246550,2021-03-13 18:22:05:072,,,0.255
0.991,5.3163,6.0574,1.2154,6.3277,7.3928,-0.0503,-0.7202,-0.0597,0.1334,0.0397,-0.0972,13.986,-3.21,-17.98,13.81,166.44,-37.86,-10.03,2,65.163,13.030847,77.58712,2658.39,NaN,53.24,14.137525,198.9,20 / 28,247051,2021-03-13 18:22:05:573,,,0.23
0.1466,5.6429,5.9487,0.9202,6.5466,7.2434,0.3583,-0.267,-0.0713,0.267,0.1121,-0.336,13.986,-2.27,-16.07,15.38,169.87,-41.88,-7.24,2,65.818,13.030729,77.58709,2653.19,NaN,51.66,13.199145,199.8,20 / 28,247551,2021-03-13 18:22:06:073,,,0.185
0.4157,6.0201,6.0909,0.761,6.6392,7.1772,-0.3266,-0.4525,0.4283,0.0902,-0.1129,0.0973,16.7832,-3.68,-14.82,17.63,165.59,-42.61,-6.05,2,66.132,13.030729,77.58709,2653.19,NaN,51.66,13.199145,199.8,20 / 28,248051,2021-03-13 18:22:06:573,,,0.145
